trialsType,trialsNum,trialNum,trials1.thisRepN,trials1.thisTrialN,trials1.thisN,trials1.thisIndex,trials2.thisRepN,trials2.thisTrialN,trials2.thisN,trials2.thisIndex,trials3.thisRepN,trials3.thisTrialN,trials3.thisN,trials3.thisIndex,trials4.thisRepN,trials4.thisTrialN,trials4.thisN,trials4.thisIndex,instr1.started,instr1.stopped,fix.started,fix.stopped,trial1Mouse.x,trial1Mouse.y,trial1Mouse.leftButton,trial1Mouse.midButton,trial1Mouse.rightButton,trial1Mouse.time,trial1Mouse.started,trial1Mouse.stopped,step,targetangle_deg,trial1Target.started,trial1Target.stopped,trial1Home.started,trial1Home.stopped,trial1Cursor.started,trial1Cursor.stopped,trial1Num.started,trial1Num.stopped,trial2Mouse.x,trial2Mouse.y,trial2Mouse.leftButton,trial2Mouse.midButton,trial2Mouse.rightButton,trial2Mouse.time,trial2Mouse.started,trial2Mouse.stopped,trial2Target.started,trial2Target.stopped,trial2Home.started,trial2Home.stopped,trial2Cursor.started,trial2Cursor.stopped,trial2Num.started,trial2Num.stopped,trial3Mouse.x,trial3Mouse.y,trial3Mouse.leftButton,trial3Mouse.midButton,trial3Mouse.rightButton,trial3Mouse.time,trial3Mouse.started,trial3Mouse.stopped,trial3Target.started,trial3Target.stopped,trial3Home.started,trial3Home.stopped,trial3Cursor.started,trial3Cursor.stopped,trial3Num.started,trial3Num.stopped,participant,session,date,expName,psychopyVersion,frameRate,
1,1,1,0,0,0,0,,,,,,,,,,,,,11.357335699955001,None,11.899546900065616,None,"[-0.10677083333333333, -0.10677083333333333, -0.10677083333333333, -0.10677083333333333, -0.10677083333333333, -0.10677083333333333, -0.10677083333333333, -0.10677083333333333, -0.10677083333333333, -0.10677083333333333, -0.10677083333333333, -0.10677083333333333, -0.10677083333333333, -0.10677083333333333, -0.10677083333333333]","[-0.15104166666666666, -0.15104166666666666, -0.15104166666666666, -0.15104166666666666, -0.15104166666666666, -0.15104166666666666, -0.15104166666666666, -0.15104166666666666, -0.15104166666666666, -0.15104166666666666, -0.15104166666666666, -0.15104166666666666, -0.15104166666666666, -0.15104166666666666, -0.15104166666666666]","[0, 0, 0, 0, 0, 0, 0, 0, 0, 0, 0, 0, 0, 0, 0]","[0, 0, 0, 0, 0, 0, 0, 0, 0, 0, 0, 0, 0, 0, 0]","[0, 0, 0, 0, 0, 0, 0, 0, 0, 0, 0, 0, 0, 0, 0]","[0.01550690014846623, 0.03405010001733899, 0.05941880005411804, 0.07689280016347766, 0.09388389997184277, 0.11019200016744435, 0.12677290011197329, 0.14351369999349117, 0.16018460015766323, 0.17684400011785328, 0.1934866001829505, 0.210137200076133, 0.22682860004715621, 0.24351090006530285, 0.2605957000050694]",12.987629699986428,None,"[1, 1, 1, 1, 1, 1, 1, 1, 1, 1, 1, 1, 1, 1, 1]",40,12.987629699986428,None,12.987629699986428,None,12.987629699986428,None,12.987629699986428,None,,,,,,,,,,,,,,,,,,,,,,,,,,,,,,,,,a,001,2020_Jun_24_1800,pAdaptTest2,2020.1.3,59.99048550638878,
1,1,2,0,1,1,1,,,,,,,,,,,,,,,,,"[-0.10677083333333333, -0.10677083333333333, -0.10677083333333333, -0.10677083333333333, -0.10677083333333333, -0.10677083333333333, -0.10677083333333333, -0.10677083333333333, -0.10677083333333333, -0.10677083333333333, -0.10677083333333333]","[-0.15104166666666666, -0.15104166666666666, -0.15104166666666666, -0.15104166666666666, -0.15104166666666666, -0.15104166666666666, -0.15104166666666666, -0.15104166666666666, -0.15104166666666666, -0.15104166666666666, -0.15104166666666666]","[0, 0, 0, 0, 0, 0, 0, 0, 0, 0, 0]","[0, 0, 0, 0, 0, 0, 0, 0, 0, 0, 0]","[0, 0, 0, 0, 0, 0, 0, 0, 0, 0, 0]","[0.004138999851420522, 0.015752800041809678, 0.034863000037148595, 0.05297559988684952, 0.06920369993895292, 0.0857980998698622, 0.10252940002828836, 0.11909960000775754, 0.13572939997538924, 0.15246249991469085, 0.1697033999953419]",13.243235799949616,None,"[1, 1, 1, 1, 1, 1, 1, 1, 1, 1, 1]",50,13.243235799949616,None,13.243235799949616,None,13.243235799949616,None,13.243235799949616,None,,,,,,,,,,,,,,,,,,,,,,,,,,,,,,,,,a,001,2020_Jun_24_1800,pAdaptTest2,2020.1.3,59.99048550638878,
1,1,3,0,2,2,2,,,,,,,,,,,,,,,,,"[-0.10677083333333333, -0.10677083333333333, -0.10677083333333333, -0.10677083333333333, -0.10677083333333333, -0.08723958333333333, -0.07161458333333333, -0.07161458333333333, -0.07161458333333333, -0.07161458333333333, -0.07161458333333333]","[-0.15104166666666666, -0.15104166666666666, -0.15234375, -0.15494791666666666, -0.15364583333333334, -0.08723958333333333, -0.041666666666666664, -0.048177083333333336, -0.049479166666666664, -0.049479166666666664, -0.049479166666666664]","[0, 0, 0, 0, 0, 0, 0, 0, 0, 0, 0]","[0, 0, 0, 0, 0, 0, 0, 0, 0, 0, 0]","[0, 0, 0, 0, 0, 0, 0, 0, 0, 0, 0]","[0.004652600036934018, 0.016197900054976344, 0.042193599976599216, 0.05919610010460019, 0.07619100017473102, 0.09246199997141957, 0.10909080016426742, 0.12600890011526644, 0.14223590004257858, 0.15878530009649694, 0.17553540016524494]",13.420565000036731,None,"[1, 1, 1, 1, 1, 1, 1, 1, 1, 1, 1]",40,13.420565000036731,None,13.420565000036731,None,13.420565000036731,None,13.420565000036731,None,,,,,,,,,,,,,,,,,,,,,,,,,,,,,,,,,a,001,2020_Jun_24_1800,pAdaptTest2,2020.1.3,59.99048550638878,
1,1,4,0,3,3,3,,,,,,,,,,,,,,,,,"[-0.07161458333333333, -0.07161458333333333, -0.07161458333333333, -0.07161458333333333, -0.07161458333333333, -0.07161458333333333, -0.07161458333333333, -0.07161458333333333, -0.07161458333333333, -0.07161458333333333, -0.07161458333333333, -0.07161458333333333, -0.07161458333333333]","[-0.049479166666666664, -0.049479166666666664, -0.049479166666666664, -0.049479166666666664, -0.049479166666666664, -0.049479166666666664, -0.049479166666666664, -0.049479166666666664, -0.049479166666666664, -0.049479166666666664, -0.049479166666666664, -0.049479166666666664, -0.049479166666666664]","[0, 0, 0, 0, 0, 0, 0, 0, 0, 0, 0, 0, 0]","[0, 0, 0, 0, 0, 0, 0, 0, 0, 0, 0, 0, 0]","[0, 0, 0, 0, 0, 0, 0, 0, 0, 0, 0, 0, 0]","[0.00470000016503036, 0.015666899969801307, 0.026979299960657954, 0.04293560003861785, 0.05965210008434951, 0.07626700005494058, 0.09301010007038713, 0.10961810010485351, 0.12634390010498464, 0.14293370000086725, 0.15965960011817515, 0.17625160003080964, 0.19331849995069206]",13.6030449999962,None,"[1, 1, 1, 1, 1, 1, 1, 1, 1, 1, 1, 1, 1]",50,13.6030449999962,None,13.6030449999962,None,13.6030449999962,None,13.6030449999962,None,,,,,,,,,,,,,,,,,,,,,,,,,,,,,,,,,a,001,2020_Jun_24_1800,pAdaptTest2,2020.1.3,59.99048550638878,
1,1,5,0,4,4,4,,,,,,,,,,,,,,,,,"[-0.07161458333333333, -0.07161458333333333, -0.07161458333333333, -0.07161458333333333, -0.07161458333333333, -0.07161458333333333, -0.07161458333333333, -0.07161458333333333, -0.07161458333333333, -0.07161458333333333]","[-0.049479166666666664, -0.049479166666666664, -0.049479166666666664, -0.049479166666666664, -0.049479166666666664, -0.049479166666666664, -0.049479166666666664, -0.049479166666666664, -0.049479166666666664, -0.049479166666666664]","[0, 0, 0, 0, 0, 0, 0, 0, 0, 0]","[0, 0, 0, 0, 0, 0, 0, 0, 0, 0]","[0, 0, 0, 0, 0, 0, 0, 0, 0, 0]","[0.00891500012949109, 0.020037000067532063, 0.04084220016375184, 0.05814000009559095, 0.07480840012431145, 0.09117040014825761, 0.10813010018318892, 0.12472070008516312, 0.1413755000103265, 0.1584425000473857]",13.80892589990981,None,"[1, 1, 1, 1, 1, 1, 1, 1, 1, 1]",40,13.80892589990981,None,13.80892589990981,None,13.80892589990981,None,13.80892589990981,None,,,,,,,,,,,,,,,,,,,,,,,,,,,,,,,,,a,001,2020_Jun_24_1800,pAdaptTest2,2020.1.3,59.99048550638878,
1,1,6,0,5,5,5,,,,,,,,,,,,,,,,,"[-0.07161458333333333, -0.07161458333333333, -0.07161458333333333, -0.07161458333333333, -0.07161458333333333, -0.07161458333333333, -0.07161458333333333, -0.07161458333333333, -0.07161458333333333, -0.07161458333333333, -0.07161458333333333, -0.07161458333333333, -0.07161458333333333]","[-0.049479166666666664, -0.049479166666666664, -0.049479166666666664, -0.049479166666666664, -0.049479166666666664, -0.049479166666666664, -0.049479166666666664, -0.049479166666666664, -0.049479166666666664, -0.049479166666666664, -0.049479166666666664, -0.049479166666666664, -0.049479166666666664]","[0, 0, 0, 0, 0, 0, 0, 0, 0, 0, 0, 0, 0]","[0, 0, 0, 0, 0, 0, 0, 0, 0, 0, 0, 0, 0]","[0, 0, 0, 0, 0, 0, 0, 0, 0, 0, 0, 0, 0]","[0.004590800032019615, 0.015277500031515956, 0.026044700061902404, 0.04214260005392134, 0.05897810007445514, 0.07591150002554059, 0.09217910002917051, 0.1088444001507014, 0.1255208000075072, 0.14217610005289316, 0.15888870018534362, 0.175485200015828, 0.1925247001927346]",13.970427599968389,None,"[1, 1, 1, 1, 1, 1, 1, 1, 1, 1, 1, 1, 1]",50,13.970427599968389,None,13.970427599968389,None,13.970427599968389,None,13.970427599968389,None,,,,,,,,,,,,,,,,,,,,,,,,,,,,,,,,,a,001,2020_Jun_24_1800,pAdaptTest2,2020.1.3,59.99048550638878,
1,1,7,0,6,6,6,,,,,,,,,,,,,,,,,"[-0.07161458333333333, -0.07161458333333333, -0.07161458333333333, -0.07161458333333333, -0.07161458333333333, -0.07161458333333333, -0.07161458333333333, -0.07161458333333333, -0.07161458333333333, -0.07161458333333333]","[-0.049479166666666664, -0.049479166666666664, -0.049479166666666664, -0.049479166666666664, -0.049479166666666664, -0.049479166666666664, -0.049479166666666664, -0.049479166666666664, -0.049479166666666664, -0.049479166666666664]","[0, 0, 0, 0, 0, 0, 0, 0, 0, 0]","[0, 0, 0, 0, 0, 0, 0, 0, 0, 0]","[0, 0, 0, 0, 0, 0, 0, 0, 0, 0]","[0.0076564999762922525, 0.018966699950397015, 0.040871899807825685, 0.05879459995776415, 0.07517169998027384, 0.09156639990396798, 0.10828799987211823, 0.1249605999328196, 0.1416497000027448, 0.15878949989564717]",14.174195399973541,None,"[1, 1, 1, 1, 1, 1, 1, 1, 1, 1]",40,14.174195399973541,None,14.174195399973541,None,14.174195399973541,None,14.174195399973541,None,,,,,,,,,,,,,,,,,,,,,,,,,,,,,,,,,a,001,2020_Jun_24_1800,pAdaptTest2,2020.1.3,59.99048550638878,
1,1,8,0,7,7,7,,,,,,,,,,,,,,,,,"[-0.07161458333333333, -0.07161458333333333, -0.07161458333333333, -0.07161458333333333, -0.07161458333333333, -0.07161458333333333, -0.07161458333333333, -0.07161458333333333, -0.07161458333333333, -0.07161458333333333]","[-0.049479166666666664, -0.049479166666666664, -0.049479166666666664, -0.049479166666666664, -0.049479166666666664, -0.049479166666666664, -0.049479166666666664, -0.049479166666666664, -0.049479166666666664, -0.049479166666666664]","[0, 0, 0, 0, 0, 0, 0, 0, 0, 0]","[0, 0, 0, 0, 0, 0, 0, 0, 0, 0]","[0, 0, 0, 0, 0, 0, 0, 0, 0, 0]","[0.004356899997219443, 0.015775300096720457, 0.041297500021755695, 0.05875409999862313, 0.07568789995275438, 0.09179409989155829, 0.10861160000786185, 0.1252975999377668, 0.14200969994999468, 0.1589003000408411]",14.33724240004085,None,"[1, 1, 1, 1, 1, 1, 1, 1, 1, 1]",50,14.33724240004085,None,14.33724240004085,None,14.33724240004085,None,14.33724240004085,None,,,,,,,,,,,,,,,,,,,,,,,,,,,,,,,,,a,001,2020_Jun_24_1800,pAdaptTest2,2020.1.3,59.99048550638878,
1,1,9,0,8,8,8,,,,,,,,,,,,,,,,,"[-0.07161458333333333, -0.07161458333333333, -0.07161458333333333, -0.07161458333333333, -0.07161458333333333, -0.07161458333333333, -0.07161458333333333, -0.07161458333333333, -0.07161458333333333, -0.07161458333333333]","[-0.049479166666666664, -0.049479166666666664, -0.049479166666666664, -0.049479166666666664, -0.049479166666666664, -0.049479166666666664, -0.049479166666666664, -0.049479166666666664, -0.049479166666666664, -0.049479166666666664]","[0, 0, 0, 0, 0, 0, 0, 0, 0, 0]","[0, 0, 0, 0, 0, 0, 0, 0, 0, 0]","[0, 0, 0, 0, 0, 0, 0, 0, 0, 0]","[0.007240300066769123, 0.018153399927541614, 0.04136510007083416, 0.05895869992673397, 0.07525509991683066, 0.09192549996078014, 0.10859719989821315, 0.12520909984596074, 0.14193139993585646, 0.15899889986030757]",14.506395699921995,None,"[1, 1, 1, 1, 1, 1, 1, 1, 1, 1]",40,14.506395699921995,None,14.506395699921995,None,14.506395699921995,None,14.506395699921995,None,,,,,,,,,,,,,,,,,,,,,,,,,,,,,,,,,a,001,2020_Jun_24_1800,pAdaptTest2,2020.1.3,59.99048550638878,
1,1,10,0,9,9,9,,,,,,,,,,,,,,,,,"[-0.07161458333333333, -0.07161458333333333, -0.07161458333333333, -0.07161458333333333, -0.07161458333333333, -0.07161458333333333, -0.07161458333333333, -0.07161458333333333, -0.07161458333333333, -0.07161458333333333, -0.07161458333333333]","[-0.049479166666666664, -0.049479166666666664, -0.049479166666666664, -0.049479166666666664, -0.049479166666666664, -0.049479166666666664, -0.049479166666666664, -0.049479166666666664, -0.049479166666666664, -0.049479166666666664, -0.049479166666666664]","[0, 0, 0, 0, 0, 0, 0, 0, 0, 0, 0]","[0, 0, 0, 0, 0, 0, 0, 0, 0, 0, 0]","[0, 0, 0, 0, 0, 0, 0, 0, 0, 0, 0]","[0.0045090001076459885, 0.015340799931436777, 0.026513100136071444, 0.04250600002706051, 0.059265000047162175, 0.08007610007189214, 0.09265250014141202, 0.10909659997560084, 0.1258559999987483, 0.1423599999397993, 0.1596975999418646]",14.669916999991983,None,"[1, 1, 1, 1, 1, 1, 1, 1, 1, 1, 1]",50,14.669916999991983,None,14.669916999991983,None,14.669916999991983,None,14.669916999991983,None,,,,,,,,,,,,,,,,,,,,,,,,,,,,,,,,,a,001,2020_Jun_24_1800,pAdaptTest2,2020.1.3,59.99048550638878,
1,1,11,0,10,10,10,,,,,,,,,,,,,,,,,"[-0.07161458333333333, -0.07161458333333333, -0.07161458333333333, -0.07161458333333333, -0.07161458333333333, -0.07161458333333333, -0.07161458333333333, -0.07161458333333333, -0.07161458333333333, -0.07161458333333333, -0.07161458333333333]","[-0.049479166666666664, -0.049479166666666664, -0.049479166666666664, -0.049479166666666664, -0.049479166666666664, -0.049479166666666664, -0.049479166666666664, -0.049479166666666664, -0.049479166666666664, -0.049479166666666664, -0.049479166666666664]","[0, 0, 0, 0, 0, 0, 0, 0, 0, 0, 0]","[0, 0, 0, 0, 0, 0, 0, 0, 0, 0, 0]","[0, 0, 0, 0, 0, 0, 0, 0, 0, 0, 0]","[0.004565199837088585, 0.015389999840408564, 0.02601259993389249, 0.04252779996022582, 0.05849089985713363, 0.07510909996926785, 0.09180119982920587, 0.10842629987746477, 0.125115699833259, 0.1417178998235613, 0.1588275998365134]",14.836869900114834,None,"[1, 1, 1, 1, 1, 1, 1, 1, 1, 1, 1]",40,14.836869900114834,None,14.836869900114834,None,14.836869900114834,None,14.836869900114834,None,,,,,,,,,,,,,,,,,,,,,,,,,,,,,,,,,a,001,2020_Jun_24_1800,pAdaptTest2,2020.1.3,59.99048550638878,
1,1,12,0,11,11,11,,,,,,,,,,,,,,,,,"[-0.07161458333333333, -0.07161458333333333, -0.07161458333333333, -0.07161458333333333, -0.07161458333333333, -0.07161458333333333, -0.07161458333333333, -0.07161458333333333, -0.07161458333333333]","[-0.049479166666666664, -0.049479166666666664, -0.049479166666666664, -0.049479166666666664, -0.049479166666666664, -0.049479166666666664, -0.049479166666666664, -0.049479166666666664, -0.049479166666666664]","[0, 0, 0, 0, 0, 0, 0, 0, 0]","[0, 0, 0, 0, 0, 0, 0, 0, 0]","[0, 0, 0, 0, 0, 0, 0, 0, 0]","[0.005430199904367328, 0.016420100117102265, 0.04185679997317493, 0.05893979989923537, 0.07541820011101663, 0.09206259995698929, 0.10855229990556836, 0.12554630008526146, 0.1426234000828117]",15.00420180009678,None,"[1, 1, 1, 1, 1, 1, 1, 1, 1]",50,15.00420180009678,None,15.00420180009678,None,15.00420180009678,None,15.00420180009678,None,,,,,,,,,,,,,,,,,,,,,,,,,,,,,,,,,a,001,2020_Jun_24_1800,pAdaptTest2,2020.1.3,59.99048550638878,
1,1,13,0,12,12,12,,,,,,,,,,,,,,,,,"[-0.07161458333333333, -0.07161458333333333, -0.07161458333333333, -0.07161458333333333, -0.07161458333333333, -0.07161458333333333, -0.07161458333333333, -0.07161458333333333, -0.07161458333333333]","[-0.049479166666666664, -0.049479166666666664, -0.049479166666666664, -0.049479166666666664, -0.049479166666666664, -0.049479166666666664, -0.049479166666666664, -0.049479166666666664, -0.049479166666666664]","[0, 0, 0, 0, 0, 0, 0, 0, 0]","[0, 0, 0, 0, 0, 0, 0, 0, 0]","[0, 0, 0, 0, 0, 0, 0, 0, 0]","[0.004131000023335218, 0.015866899862885475, 0.026559799909591675, 0.04224049998447299, 0.05894629983231425, 0.07565040001645684, 0.09223899990320206, 0.10899839992634952, 0.12648999993689358]",15.153478600084782,None,"[1, 1, 1, 1, 1, 1, 1, 1, 1]",40,15.153478600084782,None,15.153478600084782,None,15.153478600084782,None,15.153478600084782,None,,,,,,,,,,,,,,,,,,,,,,,,,,,,,,,,,a,001,2020_Jun_24_1800,pAdaptTest2,2020.1.3,59.99048550638878,
1,1,14,0,13,13,13,,,,,,,,,,,,,,,,,"[-0.07161458333333333, -0.07161458333333333, -0.07161458333333333, -0.07161458333333333, -0.07161458333333333, -0.07161458333333333, -0.07161458333333333, -0.07161458333333333, -0.07161458333333333]","[-0.049479166666666664, -0.049479166666666664, -0.049479166666666664, -0.049479166666666664, -0.049479166666666664, -0.049479166666666664, -0.049479166666666664, -0.049479166666666664, -0.049479166666666664]","[0, 0, 0, 0, 0, 0, 0, 0, 0]","[0, 0, 0, 0, 0, 0, 0, 0, 0]","[0, 0, 0, 0, 0, 0, 0, 0, 0]","[0.004127299878746271, 0.014104299945756793, 0.02596240001730621, 0.04243849986232817, 0.05964959994889796, 0.07573179993778467, 0.09242190001532435, 0.10905369999818504, 0.12629329995252192]",15.285695299971849,None,"[1, 1, 1, 1, 1, 1, 1, 1, 1]",50,15.285695299971849,None,15.285695299971849,None,15.285695299971849,None,15.285695299971849,None,,,,,,,,,,,,,,,,,,,,,,,,,,,,,,,,,a,001,2020_Jun_24_1800,pAdaptTest2,2020.1.3,59.99048550638878,
1,1,15,0,14,14,14,,,,,,,,,,,,,,,,,"[-0.07161458333333333, -0.07161458333333333, -0.07161458333333333, -0.07161458333333333, -0.07161458333333333, -0.07161458333333333, -0.07161458333333333, -0.07161458333333333, -0.07161458333333333]","[-0.049479166666666664, -0.049479166666666664, -0.049479166666666664, -0.049479166666666664, -0.049479166666666664, -0.049479166666666664, -0.049479166666666664, -0.049479166666666664, -0.049479166666666664]","[0, 0, 0, 0, 0, 0, 0, 0, 0]","[0, 0, 0, 0, 0, 0, 0, 0, 0]","[0, 0, 0, 0, 0, 0, 0, 0, 0]","[0.005064799915999174, 0.015107899904251099, 0.025939099956303835, 0.04218899994157255, 0.05914939986541867, 0.075268599903211, 0.09194549988023937, 0.10859169997274876, 0.12525949999690056]",15.420270700007677,None,"[1, 1, 1, 1, 1, 1, 1, 1, 1]",40,15.420270700007677,None,15.420270700007677,None,15.420270700007677,None,15.420270700007677,None,,,,,,,,,,,,,,,,,,,,,,,,,,,,,,,,,a,001,2020_Jun_24_1800,pAdaptTest2,2020.1.3,59.99048550638878,
1,1,16,0,15,15,15,,,,,,,,,,,,,,,,,"[-0.07161458333333333, -0.07161458333333333, -0.07161458333333333, -0.07161458333333333, -0.07161458333333333, -0.07161458333333333, -0.07161458333333333, -0.07161458333333333, -0.07161458333333333, -0.07161458333333333]","[-0.049479166666666664, -0.049479166666666664, -0.049479166666666664, -0.049479166666666664, -0.049479166666666664, -0.049479166666666664, -0.049479166666666664, -0.049479166666666664, -0.049479166666666664, -0.049479166666666664]","[0, 0, 0, 0, 0, 0, 0, 0, 0, 0]","[0, 0, 0, 0, 0, 0, 0, 0, 0, 0]","[0, 0, 0, 0, 0, 0, 0, 0, 0, 0]","[0.005661600036546588, 0.01837339997291565, 0.04253880004398525, 0.06004190002568066, 0.07725990004837513, 0.09343810006976128, 0.11009100009687245, 0.1264564001467079, 0.14338320004753768, 0.16011500009335577]",15.555143400095403,None,"[1, 1, 1, 1, 1, 1, 1, 1, 1, 1]",50,15.555143400095403,None,15.555143400095403,None,15.555143400095403,None,15.555143400095403,None,,,,,,,,,,,,,,,,,,,,,,,,,,,,,,,,,a,001,2020_Jun_24_1800,pAdaptTest2,2020.1.3,59.99048550638878,
1,1,17,0,16,16,16,,,,,,,,,,,,,,,,,"[-0.07161458333333333, -0.07161458333333333, -0.07161458333333333, -0.07161458333333333, -0.07161458333333333, -0.07161458333333333, -0.07161458333333333, -0.07161458333333333, -0.07161458333333333]","[-0.049479166666666664, -0.049479166666666664, -0.049479166666666664, -0.049479166666666664, -0.049479166666666664, -0.049479166666666664, -0.049479166666666664, -0.049479166666666664, -0.049479166666666664]","[0, 0, 0, 0, 0, 0, 0, 0, 0]","[0, 0, 0, 0, 0, 0, 0, 0, 0]","[0, 0, 0, 0, 0, 0, 0, 0, 0]","[0.00393070001155138, 0.014693300006911159, 0.026447199983522296, 0.04269290016964078, 0.05937779997475445, 0.07603260013274848, 0.09274350013583899, 0.10938929999247193, 0.1270063000265509]",15.719013900030404,None,"[1, 1, 1, 1, 1, 1, 1, 1, 1]",40,15.719013900030404,None,15.719013900030404,None,15.719013900030404,None,15.719013900030404,None,,,,,,,,,,,,,,,,,,,,,,,,,,,,,,,,,a,001,2020_Jun_24_1800,pAdaptTest2,2020.1.3,59.99048550638878,
1,1,18,0,17,17,17,,,,,,,,,,,,,,,,,"[-0.07161458333333333, -0.07161458333333333, -0.07161458333333333, -0.07161458333333333, -0.07161458333333333, -0.07161458333333333, -0.07161458333333333, -0.07161458333333333, -0.07161458333333333, -0.07161458333333333, -0.07161458333333333]","[-0.049479166666666664, -0.049479166666666664, -0.049479166666666664, -0.049479166666666664, -0.049479166666666664, -0.049479166666666664, -0.049479166666666664, -0.049479166666666664, -0.049479166666666664, -0.049479166666666664, -0.049479166666666664]","[0, 0, 0, 0, 0, 0, 0, 0, 0, 0, 0]","[0, 0, 0, 0, 0, 0, 0, 0, 0, 0, 0]","[0, 0, 0, 0, 0, 0, 0, 0, 0, 0, 0]","[0.00408759992569685, 0.014625199837610126, 0.02537099993787706, 0.04178559989668429, 0.058196399826556444, 0.07463839999400079, 0.09126999997533858, 0.10785899986512959, 0.12412009993568063, 0.1407490000128746, 0.15783139993436635]",15.853189599933103,None,"[1, 1, 1, 1, 1, 1, 1, 1, 1, 1, 1]",50,15.853189599933103,None,15.853189599933103,None,15.853189599933103,None,15.853189599933103,None,,,,,,,,,,,,,,,,,,,,,,,,,,,,,,,,,a,001,2020_Jun_24_1800,pAdaptTest2,2020.1.3,59.99048550638878,
1,1,19,0,18,18,18,,,,,,,,,,,,,,,,,"[-0.07161458333333333, -0.07161458333333333, -0.07161458333333333, -0.07161458333333333, -0.07161458333333333, -0.07161458333333333, -0.07161458333333333, -0.07161458333333333, -0.07161458333333333]","[-0.049479166666666664, -0.049479166666666664, -0.049479166666666664, -0.049479166666666664, -0.049479166666666664, -0.049479166666666664, -0.049479166666666664, -0.049479166666666664, -0.049479166666666664]","[0, 0, 0, 0, 0, 0, 0, 0, 0]","[0, 0, 0, 0, 0, 0, 0, 0, 0]","[0, 0, 0, 0, 0, 0, 0, 0, 0]","[0.00451450003311038, 0.015351200010627508, 0.026378599926829338, 0.042894399957731366, 0.05897919996641576, 0.07564349984750152, 0.09231869992800057, 0.10945749981328845, 0.12653300003148615]",16.019401900004596,None,"[1, 1, 1, 1, 1, 1, 1, 1, 1]",40,16.019401900004596,None,16.019401900004596,None,16.019401900004596,None,16.019401900004596,None,,,,,,,,,,,,,,,,,,,,,,,,,,,,,,,,,a,001,2020_Jun_24_1800,pAdaptTest2,2020.1.3,59.99048550638878,
1,1,20,0,19,19,19,,,,,,,,,,,,,,,,,"[-0.07161458333333333, -0.07161458333333333, -0.07161458333333333, -0.07161458333333333, -0.07161458333333333, -0.07161458333333333, -0.07161458333333333, -0.07161458333333333, -0.07161458333333333, -0.07161458333333333]","[-0.049479166666666664, -0.049479166666666664, -0.049479166666666664, -0.049479166666666664, -0.049479166666666664, -0.049479166666666664, -0.049479166666666664, -0.049479166666666664, -0.049479166666666664, -0.049479166666666664]","[0, 0, 0, 0, 0, 0, 0, 0, 0, 0]","[0, 0, 0, 0, 0, 0, 0, 0, 0, 0]","[0, 0, 0, 0, 0, 0, 0, 0, 0, 0]","[0.003959800116717815, 0.014848400140181184, 0.02647619997151196, 0.04260520008392632, 0.05965239997021854, 0.07599720009602606, 0.09274790016934276, 0.10920970002189279, 0.12587540014646947, 0.14282599999569356]",16.152037400053814,None,"[1, 1, 1, 1, 1, 1, 1, 1, 1, 1]",50,16.152037400053814,None,16.152037400053814,None,16.152037400053814,None,16.152037400053814,None,,,,,,,,,,,,,,,,,,,,,,,,,,,,,,,,,a,001,2020_Jun_24_1800,pAdaptTest2,2020.1.3,59.99048550638878,
1,1,21,0,20,20,20,,,,,,,,,,,,,,,,,"[-0.07161458333333333, -0.07161458333333333, -0.07161458333333333, -0.07161458333333333, -0.07161458333333333, -0.07161458333333333, -0.07161458333333333, -0.07161458333333333, -0.07161458333333333, -0.07161458333333333, -0.07161458333333333]","[-0.049479166666666664, -0.049479166666666664, -0.049479166666666664, -0.049479166666666664, -0.049479166666666664, -0.049479166666666664, -0.049479166666666664, -0.049479166666666664, -0.049479166666666664, -0.049479166666666664, -0.049479166666666664]","[0, 0, 0, 0, 0, 0, 0, 0, 0, 0, 0]","[0, 0, 0, 0, 0, 0, 0, 0, 0, 0, 0]","[0, 0, 0, 0, 0, 0, 0, 0, 0, 0, 0]","[0.004343699896708131, 0.01542650000192225, 0.026195300044491887, 0.042232299922034144, 0.05884770001284778, 0.07550899987109005, 0.0921416999772191, 0.10882039996795356, 0.1255016999784857, 0.14222959987819195, 0.15921269985847175]",16.303140999982134,None,"[1, 1, 1, 1, 1, 1, 1, 1, 1, 1, 1]",40,16.303140999982134,None,16.303140999982134,None,16.303140999982134,None,16.303140999982134,None,,,,,,,,,,,,,,,,,,,,,,,,,,,,,,,,,a,001,2020_Jun_24_1800,pAdaptTest2,2020.1.3,59.99048550638878,
1,1,22,0,21,21,21,,,,,,,,,,,,,,,,,"[-0.07161458333333333, -0.07161458333333333, -0.07161458333333333, -0.07161458333333333, -0.07161458333333333, -0.07161458333333333, -0.07161458333333333, -0.07161458333333333, -0.07161458333333333, -0.07161458333333333]","[-0.049479166666666664, -0.049479166666666664, -0.049479166666666664, -0.049479166666666664, -0.049479166666666664, -0.049479166666666664, -0.049479166666666664, -0.049479166666666664, -0.049479166666666664, -0.049479166666666664]","[0, 0, 0, 0, 0, 0, 0, 0, 0, 0]","[0, 0, 0, 0, 0, 0, 0, 0, 0, 0]","[0, 0, 0, 0, 0, 0, 0, 0, 0, 0]","[0.00405039987526834, 0.015096199931576848, 0.026838599937036633, 0.0434152998495847, 0.05962209985591471, 0.07630429998971522, 0.09317969996482134, 0.10955839999951422, 0.12623689998872578, 0.14334049983881414]",16.46903569996357,None,"[1, 1, 1, 1, 1, 1, 1, 1, 1, 1]",50,16.46903569996357,None,16.46903569996357,None,16.46903569996357,None,16.46903569996357,None,,,,,,,,,,,,,,,,,,,,,,,,,,,,,,,,,a,001,2020_Jun_24_1800,pAdaptTest2,2020.1.3,59.99048550638878,
1,1,23,0,22,22,22,,,,,,,,,,,,,,,,,"[-0.07161458333333333, -0.07161458333333333, -0.07161458333333333, -0.07161458333333333, -0.07161458333333333, -0.07161458333333333, -0.07161458333333333, -0.07161458333333333, -0.07161458333333333, -0.07161458333333333]","[-0.049479166666666664, -0.049479166666666664, -0.049479166666666664, -0.049479166666666664, -0.049479166666666664, -0.049479166666666664, -0.049479166666666664, -0.049479166666666664, -0.049479166666666664, -0.049479166666666664]","[0, 0, 0, 0, 0, 0, 0, 0, 0, 0]","[0, 0, 0, 0, 0, 0, 0, 0, 0, 0]","[0, 0, 0, 0, 0, 0, 0, 0, 0, 0]","[0.005212200107052922, 0.015325900167226791, 0.02626900002360344, 0.04273890005424619, 0.05888979998417199, 0.07556720008142292, 0.09223560011014342, 0.10891200019977987, 0.1255600000731647, 0.14223080012015998]",16.619917700067163,None,"[1, 1, 1, 1, 1, 1, 1, 1, 1, 1]",40,16.619917700067163,None,16.619917700067163,None,16.619917700067163,None,16.619917700067163,None,,,,,,,,,,,,,,,,,,,,,,,,,,,,,,,,,a,001,2020_Jun_24_1800,pAdaptTest2,2020.1.3,59.99048550638878,
1,1,24,0,23,23,23,,,,,,,,,,,,,,,,,"[-0.07161458333333333, -0.07161458333333333, -0.07161458333333333, -0.07161458333333333, -0.07161458333333333, -0.07161458333333333, -0.07161458333333333, -0.07161458333333333, -0.07161458333333333, -0.07161458333333333, -0.07161458333333333]","[-0.049479166666666664, -0.049479166666666664, -0.049479166666666664, -0.049479166666666664, -0.049479166666666664, -0.049479166666666664, -0.049479166666666664, -0.049479166666666664, -0.049479166666666664, -0.049479166666666664, -0.049479166666666664]","[0, 0, 0, 0, 0, 0, 0, 0, 0, 0, 0]","[0, 0, 0, 0, 0, 0, 0, 0, 0, 0, 0]","[0, 0, 0, 0, 0, 0, 0, 0, 0, 0, 0]","[0.005863400176167488, 0.016368200071156025, 0.027298200177028775, 0.043062500189989805, 0.06026620022021234, 0.07644120021723211, 0.09307440021075308, 0.10973610007204115, 0.1264386000111699, 0.14303480018861592, 0.15987360011786222]",16.76973950001411,None,"[1, 1, 1, 1, 1, 1, 1, 1, 1, 1, 1]",50,16.76973950001411,None,16.76973950001411,None,16.76973950001411,None,16.76973950001411,None,,,,,,,,,,,,,,,,,,,,,,,,,,,,,,,,,a,001,2020_Jun_24_1800,pAdaptTest2,2020.1.3,59.99048550638878,
1,1,25,0,24,24,24,,,,,,,,,,,,,,,,,"[-0.07161458333333333, -0.07161458333333333, -0.07161458333333333, -0.07161458333333333, -0.07161458333333333, -0.07161458333333333, -0.07161458333333333, -0.07161458333333333, -0.07161458333333333, -0.07161458333333333]","[-0.049479166666666664, -0.049479166666666664, -0.049479166666666664, -0.049479166666666664, -0.049479166666666664, -0.049479166666666664, -0.049479166666666664, -0.049479166666666664, -0.049479166666666664, -0.049479166666666664]","[0, 0, 0, 0, 0, 0, 0, 0, 0, 0]","[0, 0, 0, 0, 0, 0, 0, 0, 0, 0]","[0, 0, 0, 0, 0, 0, 0, 0, 0, 0]","[0.004019099986180663, 0.01533119985833764, 0.02699919999577105, 0.04289879999123514, 0.059657099889591336, 0.07600070000626147, 0.09289029985666275, 0.10959609993733466, 0.12658669985830784, 0.14335289993323386]",16.935641400050372,None,"[1, 1, 1, 1, 1, 1, 1, 1, 1, 1]",40,16.935641400050372,None,16.935641400050372,None,16.935641400050372,None,16.935641400050372,None,,,,,,,,,,,,,,,,,,,,,,,,,,,,,,,,,a,001,2020_Jun_24_1800,pAdaptTest2,2020.1.3,59.99048550638878,
1,1,26,0,25,25,25,,,,,,,,,,,,,,,,,"[-0.07161458333333333, -0.07161458333333333, -0.07161458333333333, -0.07161458333333333, -0.07161458333333333, -0.07161458333333333, -0.07161458333333333, -0.07161458333333333, -0.07161458333333333]","[-0.049479166666666664, -0.049479166666666664, -0.049479166666666664, -0.049479166666666664, -0.049479166666666664, -0.049479166666666664, -0.049479166666666664, -0.049479166666666664, -0.049479166666666664]","[0, 0, 0, 0, 0, 0, 0, 0, 0]","[0, 0, 0, 0, 0, 0, 0, 0, 0]","[0, 0, 0, 0, 0, 0, 0, 0, 0]","[0.0048427998553961515, 0.015031399903818965, 0.025946500012651086, 0.041893200017511845, 0.058611299842596054, 0.07531240000389516, 0.09191860002465546, 0.10853930003941059, 0.125628300011158]",17.086478899931535,None,"[1, 1, 1, 1, 1, 1, 1, 1, 1]",50,17.086478899931535,None,17.086478899931535,None,17.086478899931535,None,17.086478899931535,None,,,,,,,,,,,,,,,,,,,,,,,,,,,,,,,,,a,001,2020_Jun_24_1800,pAdaptTest2,2020.1.3,59.99048550638878,
1,1,27,0,26,26,26,,,,,,,,,,,,,,,,,"[-0.07161458333333333, -0.07161458333333333, -0.07161458333333333, -0.07161458333333333, -0.07161458333333333, -0.07161458333333333, -0.07161458333333333]","[-0.049479166666666664, -0.049479166666666664, -0.049479166666666664, -0.049479166666666664, -0.049479166666666664, -0.049479166666666664, -0.049479166666666664]","[0, 0, 0, 0, 0, 0, 0]","[0, 0, 0, 0, 0, 0, 0]","[0, 0, 0, 0, 0, 0, 0]","[0.004388799890875816, 0.015192799968644977, 0.026057499926537275, 0.04283900000154972, 0.058788999915122986, 0.07558749988675117, 0.09253569995053113]",17.219641600036994,None,"[1, 1, 1, 1, 1, 1, 1]",40,17.219641600036994,None,17.219641600036994,None,17.219641600036994,None,17.219641600036994,None,,,,,,,,,,,,,,,,,,,,,,,,,,,,,,,,,a,001,2020_Jun_24_1800,pAdaptTest2,2020.1.3,59.99048550638878,
1,1,28,0,27,27,27,,,,,,,,,,,,,,,,,"[-0.07161458333333333, -0.07161458333333333, -0.07161458333333333, -0.07161458333333333, -0.07161458333333333, -0.07161458333333333, -0.07161458333333333, -0.07161458333333333, -0.07161458333333333, -0.07161458333333333]","[-0.049479166666666664, -0.049479166666666664, -0.049479166666666664, -0.049479166666666664, -0.049479166666666664, -0.049479166666666664, -0.049479166666666664, -0.049479166666666664, -0.049479166666666664, -0.049479166666666664]","[0, 0, 0, 0, 0, 0, 0, 0, 0, 0]","[0, 0, 0, 0, 0, 0, 0, 0, 0, 0]","[0, 0, 0, 0, 0, 0, 0, 0, 0, 0]","[0.004594400059431791, 0.015579500002786517, 0.026464700000360608, 0.0421685001347214, 0.05883800005540252, 0.07574330014176667, 0.09210540005005896, 0.10879690013825893, 0.12550570000894368, 0.14263859996572137]",17.319532900117338,None,"[1, 1, 1, 1, 1, 1, 1, 1, 1, 1]",50,17.319532900117338,None,17.319532900117338,None,17.319532900117338,None,17.319532900117338,None,,,,,,,,,,,,,,,,,,,,,,,,,,,,,,,,,a,001,2020_Jun_24_1800,pAdaptTest2,2020.1.3,59.99048550638878,
1,1,29,0,28,28,28,,,,,,,,,,,,,,,,,"[-0.07161458333333333, -0.07161458333333333, -0.07161458333333333, -0.07161458333333333, -0.07161458333333333, -0.07161458333333333, -0.07161458333333333, -0.07161458333333333, -0.07161458333333333]","[-0.049479166666666664, -0.049479166666666664, -0.049479166666666664, -0.049479166666666664, -0.049479166666666664, -0.049479166666666664, -0.049479166666666664, -0.049479166666666664, -0.049479166666666664]","[0, 0, 0, 0, 0, 0, 0, 0, 0]","[0, 0, 0, 0, 0, 0, 0, 0, 0]","[0, 0, 0, 0, 0, 0, 0, 0, 0]","[0.004350000061094761, 0.015307599911466241, 0.0414211000315845, 0.05953660001978278, 0.07545370003208518, 0.09214690001681447, 0.10874719987623394, 0.1254254998639226, 0.1420741998590529]",17.469772099982947,None,"[1, 1, 1, 1, 1, 1, 1, 1, 1]",40,17.469772099982947,None,17.469772099982947,None,17.469772099982947,None,17.469772099982947,None,,,,,,,,,,,,,,,,,,,,,,,,,,,,,,,,,a,001,2020_Jun_24_1800,pAdaptTest2,2020.1.3,59.99048550638878,
1,1,30,0,29,29,29,,,,,,,,,,,,,,,,,"[-0.07161458333333333, -0.07161458333333333, -0.07161458333333333, -0.07161458333333333, -0.07161458333333333, -0.07161458333333333, -0.07161458333333333, -0.07161458333333333, -0.07161458333333333, -0.07161458333333333]","[-0.049479166666666664, -0.049479166666666664, -0.049479166666666664, -0.049479166666666664, -0.049479166666666664, -0.049479166666666664, -0.049479166666666664, -0.049479166666666664, -0.049479166666666664, -0.049479166666666664]","[0, 0, 0, 0, 0, 0, 0, 0, 0, 0]","[0, 0, 0, 0, 0, 0, 0, 0, 0, 0]","[0, 0, 0, 0, 0, 0, 0, 0, 0, 0]","[0.004531600046902895, 0.01571390009485185, 0.02722040005028248, 0.04330310015939176, 0.06048840004950762, 0.07667089998722076, 0.09325330005958676, 0.10994870006106794, 0.1266290000639856, 0.1437576999887824]",17.618628500029445,None,"[1, 1, 1, 1, 1, 1, 1, 1, 1, 1]",50,17.618628500029445,None,17.618628500029445,None,17.618628500029445,None,17.618628500029445,None,,,,,,,,,,,,,,,,,,,,,,,,,,,,,,,,,a,001,2020_Jun_24_1800,pAdaptTest2,2020.1.3,59.99048550638878,
1,1,31,0,30,30,30,,,,,,,,,,,,,,,,,"[-0.07161458333333333, -0.07161458333333333, -0.07161458333333333, -0.07161458333333333, -0.07161458333333333, -0.07161458333333333, -0.07161458333333333, -0.07161458333333333, -0.07161458333333333]","[-0.049479166666666664, -0.049479166666666664, -0.049479166666666664, -0.049479166666666664, -0.049479166666666664, -0.049479166666666664, -0.049479166666666664, -0.049479166666666664, -0.049479166666666664]","[0, 0, 0, 0, 0, 0, 0, 0, 0]","[0, 0, 0, 0, 0, 0, 0, 0, 0]","[0, 0, 0, 0, 0, 0, 0, 0, 0]","[0.004191600019112229, 0.01569490018300712, 0.04159300005994737, 0.05976230022497475, 0.07567210006527603, 0.09235869999974966, 0.1089733000844717, 0.1257407001685351, 0.14268180006183684]",17.7692943001166,None,"[1, 1, 1, 1, 1, 1, 1, 1, 1]",40,17.7692943001166,None,17.7692943001166,None,17.7692943001166,None,17.7692943001166,None,,,,,,,,,,,,,,,,,,,,,,,,,,,,,,,,,a,001,2020_Jun_24_1800,pAdaptTest2,2020.1.3,59.99048550638878,
1,1,32,0,31,31,31,,,,,,,,,,,,,,,,,"[-0.07161458333333333, -0.07161458333333333, -0.07161458333333333, -0.07161458333333333, -0.07161458333333333, -0.07161458333333333, -0.07161458333333333, -0.07161458333333333]","[-0.049479166666666664, -0.049479166666666664, -0.049479166666666664, -0.049479166666666664, -0.049479166666666664, -0.049479166666666664, -0.049479166666666664, -0.049479166666666664]","[0, 0, 0, 0, 0, 0, 0, 0]","[0, 0, 0, 0, 0, 0, 0, 0]","[0, 0, 0, 0, 0, 0, 0, 0]","[0.005447000032290816, 0.016418800223618746, 0.04121450008824468, 0.0591518001165241, 0.07536620018072426, 0.09200570010580122, 0.10875620017759502, 0.1258129000198096]",17.920251300092787,None,"[1, 1, 1, 1, 1, 1, 1, 1]",50,17.920251300092787,None,17.920251300092787,None,17.920251300092787,None,17.920251300092787,None,,,,,,,,,,,,,,,,,,,,,,,,,,,,,,,,,a,001,2020_Jun_24_1800,pAdaptTest2,2020.1.3,59.99048550638878,
1,1,33,0,32,32,32,,,,,,,,,,,,,,,,,"[-0.07161458333333333, -0.07161458333333333, -0.07161458333333333, -0.07161458333333333, -0.07161458333333333, -0.07161458333333333, -0.07161458333333333, -0.07161458333333333, -0.07161458333333333, -0.07161458333333333]","[-0.049479166666666664, -0.049479166666666664, -0.049479166666666664, -0.049479166666666664, -0.049479166666666664, -0.049479166666666664, -0.049479166666666664, -0.049479166666666664, -0.049479166666666664, -0.049479166666666664]","[0, 0, 0, 0, 0, 0, 0, 0, 0, 0]","[0, 0, 0, 0, 0, 0, 0, 0, 0, 0]","[0, 0, 0, 0, 0, 0, 0, 0, 0, 0]","[0.0046205001417547464, 0.01589490007609129, 0.04150330019183457, 0.0593234000261873, 0.0756995000410825, 0.09235740010626614, 0.10906990012153983, 0.12569750007241964, 0.14224580000154674, 0.1587970000691712]",18.05262039997615,None,"[1, 1, 1, 1, 1, 1, 1, 1, 1, 1]",40,18.05262039997615,None,18.05262039997615,None,18.05262039997615,None,18.05262039997615,None,,,,,,,,,,,,,,,,,,,,,,,,,,,,,,,,,a,001,2020_Jun_24_1800,pAdaptTest2,2020.1.3,59.99048550638878,
1,1,34,0,33,33,33,,,,,,,,,,,,,,,,,"[-0.07161458333333333, -0.07161458333333333, -0.07161458333333333, -0.07161458333333333, -0.07161458333333333, -0.07161458333333333, -0.07161458333333333, -0.07161458333333333, -0.07161458333333333, -0.07161458333333333]","[-0.049479166666666664, -0.049479166666666664, -0.049479166666666664, -0.049479166666666664, -0.049479166666666664, -0.049479166666666664, -0.049479166666666664, -0.049479166666666664, -0.049479166666666664, -0.049479166666666664]","[0, 0, 0, 0, 0, 0, 0, 0, 0, 0]","[0, 0, 0, 0, 0, 0, 0, 0, 0, 0]","[0, 0, 0, 0, 0, 0, 0, 0, 0, 0]","[0.004100299905985594, 0.015510499943047762, 0.02713580010458827, 0.043136199936270714, 0.059989700093865395, 0.07644380000419915, 0.09308520006015897, 0.10984819987788796, 0.12642710004001856, 0.14310500002466142]",18.218491199892014,None,"[1, 1, 1, 1, 1, 1, 1, 1, 1, 1]",50,18.218491199892014,None,18.218491199892014,None,18.218491199892014,None,18.218491199892014,None,,,,,,,,,,,,,,,,,,,,,,,,,,,,,,,,,a,001,2020_Jun_24_1800,pAdaptTest2,2020.1.3,59.99048550638878,
1,1,35,0,34,34,34,,,,,,,,,,,,,,,,,"[-0.07161458333333333, -0.07161458333333333, -0.07161458333333333, -0.07161458333333333, -0.07161458333333333, -0.07161458333333333, -0.07161458333333333, -0.07161458333333333, -0.07161458333333333, -0.07161458333333333]","[-0.049479166666666664, -0.049479166666666664, -0.049479166666666664, -0.049479166666666664, -0.049479166666666664, -0.049479166666666664, -0.049479166666666664, -0.049479166666666664, -0.049479166666666664, -0.049479166666666664]","[0, 0, 0, 0, 0, 0, 0, 0, 0, 0]","[0, 0, 0, 0, 0, 0, 0, 0, 0, 0]","[0, 0, 0, 0, 0, 0, 0, 0, 0, 0]","[0.003931200131773949, 0.014484500046819448, 0.026567100081592798, 0.04298960021696985, 0.06023470009677112, 0.07638830016367137, 0.09309430001303554, 0.10967450006864965, 0.1264345000963658, 0.14342990005388856]",18.36733440007083,None,"[1, 1, 1, 1, 1, 1, 1, 1, 1, 1]",40,18.36733440007083,None,18.36733440007083,None,18.36733440007083,None,18.36733440007083,None,,,,,,,,,,,,,,,,,,,,,,,,,,,,,,,,,a,001,2020_Jun_24_1800,pAdaptTest2,2020.1.3,59.99048550638878,
1,1,36,0,35,35,35,,,,,,,,,,,,,,,,,"[-0.07161458333333333, -0.07161458333333333, -0.07161458333333333, -0.07161458333333333, -0.07161458333333333, -0.07161458333333333, -0.07161458333333333, -0.07161458333333333, -0.07161458333333333, -0.07161458333333333]","[-0.049479166666666664, -0.049479166666666664, -0.049479166666666664, -0.049479166666666664, -0.049479166666666664, -0.049479166666666664, -0.049479166666666664, -0.049479166666666664, -0.049479166666666664, -0.049479166666666664]","[0, 0, 0, 0, 0, 0, 0, 0, 0, 0]","[0, 0, 0, 0, 0, 0, 0, 0, 0, 0]","[0, 0, 0, 0, 0, 0, 0, 0, 0, 0]","[0.004445799859240651, 0.01592389983125031, 0.026877899887040257, 0.042724299943074584, 0.060104999924078584, 0.07717319997027516, 0.09253809996880591, 0.10933479992672801, 0.12594820000231266, 0.14313029986806214]",18.519016799982637,None,"[1, 1, 1, 1, 1, 1, 1, 1, 1, 1]",50,18.519016799982637,None,18.519016799982637,None,18.519016799982637,None,18.519016799982637,None,,,,,,,,,,,,,,,,,,,,,,,,,,,,,,,,,a,001,2020_Jun_24_1800,pAdaptTest2,2020.1.3,59.99048550638878,
2,2,1,,,,,0,0,0,0,,,,,,,,,18.665396800031886,None,18.847882099915296,None,,,,,,,,,"[1, 1, 1, 1, 1, 1, 1, 1, 1]",40,,,,,,,,,"[-0.07161458333333333, -0.07161458333333333, -0.07161458333333333, -0.07161458333333333, -0.07161458333333333, -0.07161458333333333, -0.07161458333333333, -0.07161458333333333, -0.07161458333333333]","[-0.049479166666666664, -0.049479166666666664, -0.049479166666666664, -0.049479166666666664, -0.049479166666666664, -0.049479166666666664, -0.049479166666666664, -0.049479166666666664, -0.049479166666666664]","[0, 0, 0, 0, 0, 0, 0, 0, 0]","[0, 0, 0, 0, 0, 0, 0, 0, 0]","[0, 0, 0, 0, 0, 0, 0, 0, 0]","[0.004180199932307005, 0.01617940003052354, 0.03948539984412491, 0.05713979993015528, 0.07364399987272918, 0.09027709998190403, 0.10695679998025298, 0.123602099949494, 0.1406698999926448]",19.871291999937966,None,19.871291999937966,None,19.871291999937966,None,19.871291999937966,None,19.871291999937966,None,,,,,,,,,,,,,,,,,a,001,2020_Jun_24_1800,pAdaptTest2,2020.1.3,59.99048550638878,
2,2,2,,,,,0,1,1,1,,,,,,,,,,,,,,,,,,,,,"[1, 1, 1, 1, 1, 1, 1, 1, 1, 1, 1]",50,,,,,,,,,"[-0.07161458333333333, -0.07161458333333333, -0.07161458333333333, -0.07161458333333333, -0.07161458333333333, -0.07161458333333333, -0.07161458333333333, -0.07161458333333333, -0.07161458333333333, -0.07161458333333333, -0.07161458333333333]","[-0.049479166666666664, -0.049479166666666664, -0.049479166666666664, -0.049479166666666664, -0.049479166666666664, -0.049479166666666664, -0.049479166666666664, -0.049479166666666664, -0.049479166666666664, -0.049479166666666664, -0.049479166666666664]","[0, 0, 0, 0, 0, 0, 0, 0, 0, 0, 0]","[0, 0, 0, 0, 0, 0, 0, 0, 0, 0, 0]","[0, 0, 0, 0, 0, 0, 0, 0, 0, 0, 0]","[0.005011199973523617, 0.01604910008609295, 0.03868349990807474, 0.05727749993093312, 0.07284900010563433, 0.08943750010803342, 0.10611970000900328, 0.12286820006556809, 0.1394946000073105, 0.1562053000088781, 0.17343640001490712]",20.02199209993705,None,20.02199209993705,None,20.02199209993705,None,20.02199209993705,None,20.02199209993705,None,,,,,,,,,,,,,,,,,a,001,2020_Jun_24_1800,pAdaptTest2,2020.1.3,59.99048550638878,
2,2,3,,,,,0,2,2,2,,,,,,,,,,,,,,,,,,,,,"[1, 1, 1, 1, 1, 1, 1, 1, 1, 1, 1, 1]",40,,,,,,,,,"[-0.07161458333333333, -0.07161458333333333, -0.07161458333333333, -0.07161458333333333, -0.07161458333333333, -0.07161458333333333, -0.07161458333333333, -0.07161458333333333, -0.07161458333333333, -0.07161458333333333, -0.07161458333333333, -0.07161458333333333]","[-0.049479166666666664, -0.049479166666666664, -0.049479166666666664, -0.049479166666666664, -0.049479166666666664, -0.049479166666666664, -0.049479166666666664, -0.049479166666666664, -0.049479166666666664, -0.049479166666666664, -0.049479166666666664, -0.049479166666666664]","[0, 0, 0, 0, 0, 0, 0, 0, 0, 0, 0, 0]","[0, 0, 0, 0, 0, 0, 0, 0, 0, 0, 0, 0]","[0, 0, 0, 0, 0, 0, 0, 0, 0, 0, 0, 0]","[0.004410899942740798, 0.015421400079503655, 0.026231100084260106, 0.04280030005611479, 0.0585719000082463, 0.07535890000872314, 0.09224879997782409, 0.1086039999499917, 0.12523570004850626, 0.14201830001547933, 0.15855220006778836, 0.17531269998289645]",20.20258260006085,None,20.20258260006085,None,20.20258260006085,None,20.20258260006085,None,20.20258260006085,None,,,,,,,,,,,,,,,,,a,001,2020_Jun_24_1800,pAdaptTest2,2020.1.3,59.99048550638878,
2,2,4,,,,,0,3,3,3,,,,,,,,,,,,,,,,,,,,,"[1, 1, 1, 1, 1, 1, 1, 1, 1, 1, 1]",50,,,,,,,,,"[-0.07161458333333333, -0.07161458333333333, -0.07161458333333333, -0.07161458333333333, -0.07161458333333333, -0.07161458333333333, -0.07161458333333333, -0.07161458333333333, -0.07161458333333333, -0.07161458333333333, -0.07161458333333333]","[-0.049479166666666664, -0.049479166666666664, -0.049479166666666664, -0.049479166666666664, -0.049479166666666664, -0.049479166666666664, -0.049479166666666664, -0.049479166666666664, -0.049479166666666664, -0.049479166666666664, -0.049479166666666664]","[0, 0, 0, 0, 0, 0, 0, 0, 0, 0, 0]","[0, 0, 0, 0, 0, 0, 0, 0, 0, 0, 0]","[0, 0, 0, 0, 0, 0, 0, 0, 0, 0, 0]","[0.007078099995851517, 0.01896160002797842, 0.04076500004157424, 0.05815860000438988, 0.0749097999650985, 0.09156049997545779, 0.10851929988712072, 0.12495750002563, 0.14147930010221899, 0.1582778999581933, 0.17487240000627935]",20.389988699927926,None,20.389988699927926,None,20.389988699927926,None,20.389988699927926,None,20.389988699927926,None,,,,,,,,,,,,,,,,,a,001,2020_Jun_24_1800,pAdaptTest2,2020.1.3,59.99048550638878,
2,2,5,,,,,0,4,4,4,,,,,,,,,,,,,,,,,,,,,"[1, 1, 1, 1, 1, 1, 1, 1, 1, 1, 1]",40,,,,,,,,,"[-0.07161458333333333, -0.07161458333333333, -0.07161458333333333, -0.07161458333333333, -0.07161458333333333, -0.07161458333333333, -0.07161458333333333, -0.07161458333333333, -0.07161458333333333, -0.07161458333333333, -0.07161458333333333]","[-0.049479166666666664, -0.049479166666666664, -0.049479166666666664, -0.049479166666666664, -0.049479166666666664, -0.049479166666666664, -0.049479166666666664, -0.049479166666666664, -0.049479166666666664, -0.049479166666666664, -0.049479166666666664]","[0, 0, 0, 0, 0, 0, 0, 0, 0, 0, 0]","[0, 0, 0, 0, 0, 0, 0, 0, 0, 0, 0]","[0, 0, 0, 0, 0, 0, 0, 0, 0, 0, 0]","[0.004281299887225032, 0.015704500023275614, 0.041552199982106686, 0.059024699963629246, 0.07559769996441901, 0.09233859996311367, 0.1090253998991102, 0.12544899992644787, 0.14235330000519753, 0.15899829985573888, 0.17553710006177425]",20.56859100004658,None,20.56859100004658,None,20.56859100004658,None,20.56859100004658,None,20.56859100004658,None,,,,,,,,,,,,,,,,,a,001,2020_Jun_24_1800,pAdaptTest2,2020.1.3,59.99048550638878,
2,2,6,,,,,0,5,5,5,,,,,,,,,,,,,,,,,,,,,"[1, 1, 1, 1, 1, 1, 1, 1, 1, 1, 1]",50,,,,,,,,,"[-0.07161458333333333, -0.07161458333333333, -0.07161458333333333, -0.07161458333333333, -0.07161458333333333, -0.07161458333333333, -0.07161458333333333, -0.07161458333333333, -0.07161458333333333, -0.07161458333333333, -0.07161458333333333]","[-0.049479166666666664, -0.049479166666666664, -0.049479166666666664, -0.049479166666666664, -0.049479166666666664, -0.049479166666666664, -0.049479166666666664, -0.049479166666666664, -0.049479166666666664, -0.049479166666666664, -0.049479166666666664]","[0, 0, 0, 0, 0, 0, 0, 0, 0, 0, 0]","[0, 0, 0, 0, 0, 0, 0, 0, 0, 0, 0]","[0, 0, 0, 0, 0, 0, 0, 0, 0, 0, 0]","[0.006709800101816654, 0.018900200026109815, 0.041882700053974986, 0.06001430004835129, 0.07660420006141067, 0.0928696000482887, 0.10947310016490519, 0.12621440016664565, 0.14282459998503327, 0.1595640000887215, 0.1765511000994593]",20.754502299940214,None,20.754502299940214,None,20.754502299940214,None,20.754502299940214,None,20.754502299940214,None,,,,,,,,,,,,,,,,,a,001,2020_Jun_24_1800,pAdaptTest2,2020.1.3,59.99048550638878,
2,2,7,,,,,0,6,6,6,,,,,,,,,,,,,,,,,,,,,"[1, 1, 1, 1, 1, 1, 1, 1, 1, 1, 1, 1]",40,,,,,,,,,"[-0.07161458333333333, -0.07161458333333333, -0.07161458333333333, -0.07161458333333333, -0.07161458333333333, -0.07161458333333333, -0.07161458333333333, -0.07161458333333333, -0.07161458333333333, -0.07161458333333333, -0.07161458333333333, -0.07161458333333333]","[-0.049479166666666664, -0.049479166666666664, -0.049479166666666664, -0.049479166666666664, -0.049479166666666664, -0.049479166666666664, -0.049479166666666664, -0.049479166666666664, -0.049479166666666664, -0.049479166666666664, -0.049479166666666664, -0.049479166666666664]","[0, 0, 0, 0, 0, 0, 0, 0, 0, 0, 0, 0]","[0, 0, 0, 0, 0, 0, 0, 0, 0, 0, 0, 0]","[0, 0, 0, 0, 0, 0, 0, 0, 0, 0, 0, 0]","[0.004920999985188246, 0.016581099946051836, 0.04138600011356175, 0.05891839996911585, 0.07560310000553727, 0.09224010002799332, 0.1088332999497652, 0.1260375001002103, 0.1425288999453187, 0.15878810011781752, 0.17551490012556314, 0.19279969995841384]",20.936480999924242,None,20.936480999924242,None,20.936480999924242,None,20.936480999924242,None,20.936480999924242,None,,,,,,,,,,,,,,,,,a,001,2020_Jun_24_1800,pAdaptTest2,2020.1.3,59.99048550638878,
2,2,8,,,,,0,7,7,7,,,,,,,,,,,,,,,,,,,,,"[1, 1, 1, 1, 1, 1, 1, 1, 1, 1, 1, 1]",50,,,,,,,,,"[-0.07161458333333333, -0.07161458333333333, -0.07161458333333333, -0.07161458333333333, -0.07161458333333333, -0.07161458333333333, -0.07161458333333333, -0.07161458333333333, -0.07161458333333333, -0.07161458333333333, -0.07161458333333333, -0.07161458333333333]","[-0.049479166666666664, -0.049479166666666664, -0.049479166666666664, -0.049479166666666664, -0.049479166666666664, -0.049479166666666664, -0.049479166666666664, -0.049479166666666664, -0.049479166666666664, -0.049479166666666664, -0.049479166666666664, -0.049479166666666664]","[0, 0, 0, 0, 0, 0, 0, 0, 0, 0, 0, 0]","[0, 0, 0, 0, 0, 0, 0, 0, 0, 0, 0, 0]","[0, 0, 0, 0, 0, 0, 0, 0, 0, 0, 0, 0]","[0.004844100214540958, 0.0149940000846982, 0.040822100127115846, 0.058420300018042326, 0.0750032002106309, 0.09163680020719767, 0.10833370010368526, 0.12502590008080006, 0.1417029001750052, 0.1583567000925541, 0.1750001001637429, 0.19344630022533238]",21.135559800080955,None,21.135559800080955,None,21.135559800080955,None,21.135559800080955,None,21.135559800080955,None,,,,,,,,,,,,,,,,,a,001,2020_Jun_24_1800,pAdaptTest2,2020.1.3,59.99048550638878,
2,2,9,,,,,0,8,8,8,,,,,,,,,,,,,,,,,,,,,"[1, 1, 1, 1, 1, 1, 1, 1, 1, 1, 1, 1]",40,,,,,,,,,"[-0.07161458333333333, -0.07161458333333333, -0.07161458333333333, -0.07161458333333333, -0.07161458333333333, -0.07161458333333333, -0.07161458333333333, -0.07161458333333333, -0.07161458333333333, -0.07161458333333333, -0.07161458333333333, -0.07161458333333333]","[-0.049479166666666664, -0.049479166666666664, -0.049479166666666664, -0.049479166666666664, -0.049479166666666664, -0.049479166666666664, -0.049479166666666664, -0.049479166666666664, -0.049479166666666664, -0.049479166666666664, -0.049479166666666664, -0.049479166666666664]","[0, 0, 0, 0, 0, 0, 0, 0, 0, 0, 0, 0]","[0, 0, 0, 0, 0, 0, 0, 0, 0, 0, 0, 0]","[0, 0, 0, 0, 0, 0, 0, 0, 0, 0, 0, 0]","[0.004621900152415037, 0.015412600012496114, 0.04047310003079474, 0.058662200113758445, 0.07454499998129904, 0.09078610013239086, 0.10744330007582903, 0.12410580017603934, 0.14084870018996298, 0.1573739000596106, 0.17432200000621378, 0.19119170005433261]",21.33621759992093,None,21.33621759992093,None,21.33621759992093,None,21.33621759992093,None,21.33621759992093,None,,,,,,,,,,,,,,,,,a,001,2020_Jun_24_1800,pAdaptTest2,2020.1.3,59.99048550638878,
2,2,10,,,,,0,9,9,9,,,,,,,,,,,,,,,,,,,,,"[1, 1, 1, 1, 1, 1, 1, 1, 1, 1, 1, 1, 1]",50,,,,,,,,,"[-0.07161458333333333, -0.07161458333333333, -0.07161458333333333, -0.07161458333333333, -0.07161458333333333, -0.07161458333333333, -0.07161458333333333, -0.07161458333333333, -0.07161458333333333, -0.07161458333333333, -0.07161458333333333, -0.07161458333333333, -0.07161458333333333]","[-0.049479166666666664, -0.049479166666666664, -0.049479166666666664, -0.049479166666666664, -0.049479166666666664, -0.049479166666666664, -0.049479166666666664, -0.049479166666666664, -0.049479166666666664, -0.049479166666666664, -0.049479166666666664, -0.049479166666666664, -0.049479166666666664]","[0, 0, 0, 0, 0, 0, 0, 0, 0, 0, 0, 0, 0]","[0, 0, 0, 0, 0, 0, 0, 0, 0, 0, 0, 0, 0]","[0, 0, 0, 0, 0, 0, 0, 0, 0, 0, 0, 0, 0]","[0.004006600007414818, 0.01536570000462234, 0.026519499951973557, 0.04278679983690381, 0.05928329983726144, 0.07600139989517629, 0.09286069986410439, 0.10931369988247752, 0.1259694998152554, 0.14268339984118938, 0.15931589994579554, 0.17600049986504018, 0.19269299996085465]",21.534777800086886,None,21.534777800086886,None,21.534777800086886,None,21.534777800086886,None,21.534777800086886,None,,,,,,,,,,,,,,,,,a,001,2020_Jun_24_1800,pAdaptTest2,2020.1.3,59.99048550638878,
2,2,11,,,,,0,10,10,10,,,,,,,,,,,,,,,,,,,,,"[1, 1, 1, 1, 1, 1, 1, 1, 1, 1, 1, 1, 1]",40,,,,,,,,,"[-0.07161458333333333, -0.07161458333333333, -0.07161458333333333, -0.07161458333333333, -0.07161458333333333, -0.07161458333333333, -0.07161458333333333, -0.07161458333333333, -0.07161458333333333, -0.07161458333333333, -0.07161458333333333, -0.07161458333333333, -0.07161458333333333]","[-0.049479166666666664, -0.049479166666666664, -0.049479166666666664, -0.049479166666666664, -0.049479166666666664, -0.049479166666666664, -0.049479166666666664, -0.049479166666666664, -0.049479166666666664, -0.049479166666666664, -0.049479166666666664, -0.049479166666666664, -0.049479166666666664]","[0, 0, 0, 0, 0, 0, 0, 0, 0, 0, 0, 0, 0]","[0, 0, 0, 0, 0, 0, 0, 0, 0, 0, 0, 0, 0]","[0, 0, 0, 0, 0, 0, 0, 0, 0, 0, 0, 0, 0]","[0.00466410000808537, 0.01503649982623756, 0.026926499791443348, 0.043087099911645055, 0.05971719999797642, 0.07635719981044531, 0.09305749996565282, 0.10970349982380867, 0.12636559992097318, 0.14301140001043677, 0.15960599994286895, 0.1763708998914808, 0.19340609991922975]",21.73436959995888,None,21.73436959995888,None,21.73436959995888,None,21.73436959995888,None,21.73436959995888,None,,,,,,,,,,,,,,,,,a,001,2020_Jun_24_1800,pAdaptTest2,2020.1.3,59.99048550638878,
2,2,12,,,,,0,11,11,11,,,,,,,,,,,,,,,,,,,,,"[1, 1, 1, 1, 1, 1, 1, 1, 1, 1, 1, 1]",50,,,,,,,,,"[-0.07161458333333333, -0.07161458333333333, -0.07161458333333333, -0.07161458333333333, -0.07161458333333333, -0.07161458333333333, -0.07161458333333333, -0.07161458333333333, -0.07161458333333333, -0.07161458333333333, -0.07161458333333333, -0.07161458333333333]","[-0.049479166666666664, -0.049479166666666664, -0.049479166666666664, -0.049479166666666664, -0.049479166666666664, -0.049479166666666664, -0.049479166666666664, -0.049479166666666664, -0.049479166666666664, -0.049479166666666664, -0.049479166666666664, -0.049479166666666664]","[0, 0, 0, 0, 0, 0, 0, 0, 0, 0, 0, 0]","[0, 0, 0, 0, 0, 0, 0, 0, 0, 0, 0, 0]","[0, 0, 0, 0, 0, 0, 0, 0, 0, 0, 0, 0]","[0.004183799959719181, 0.015345300082117319, 0.04159160004928708, 0.059247100027278066, 0.0757037999574095, 0.09228849993087351, 0.10896439990028739, 0.12605480011552572, 0.1422886000946164, 0.15894660004414618, 0.1755975999403745, 0.1928501999936998]",21.934847000055015,None,21.934847000055015,None,21.934847000055015,None,21.934847000055015,None,21.934847000055015,None,,,,,,,,,,,,,,,,,a,001,2020_Jun_24_1800,pAdaptTest2,2020.1.3,59.99048550638878,
2,2,13,,,,,0,12,12,12,,,,,,,,,,,,,,,,,,,,,"[1, 1, 1, 1, 1, 1, 1, 1, 1, 1, 1, 1]",40,,,,,,,,,"[-0.07161458333333333, -0.07161458333333333, -0.07161458333333333, -0.07161458333333333, -0.07161458333333333, -0.07161458333333333, -0.07161458333333333, -0.07161458333333333, -0.07161458333333333, -0.07161458333333333, -0.07161458333333333, -0.07161458333333333]","[-0.049479166666666664, -0.049479166666666664, -0.049479166666666664, -0.049479166666666664, -0.049479166666666664, -0.049479166666666664, -0.049479166666666664, -0.049479166666666664, -0.049479166666666664, -0.049479166666666664, -0.049479166666666664, -0.049479166666666664]","[0, 0, 0, 0, 0, 0, 0, 0, 0, 0, 0, 0]","[0, 0, 0, 0, 0, 0, 0, 0, 0, 0, 0, 0]","[0, 0, 0, 0, 0, 0, 0, 0, 0, 0, 0, 0]","[0.005092700012028217, 0.016239400021731853, 0.041096200002357364, 0.058235100004822016, 0.07500050007365644, 0.09152300003916025, 0.10837249993346632, 0.1249414999037981, 0.14153849985450506, 0.15820539998821914, 0.17473089997656643, 0.19234819989651442]",22.136172299971804,None,22.136172299971804,None,22.136172299971804,None,22.136172299971804,None,22.136172299971804,None,,,,,,,,,,,,,,,,,a,001,2020_Jun_24_1800,pAdaptTest2,2020.1.3,59.99048550638878,
2,2,14,,,,,0,13,13,13,,,,,,,,,,,,,,,,,,,,,"[1, 1, 1, 1, 1, 1, 1, 1, 1, 1, 1, 1, 1, 1]",50,,,,,,,,,"[-0.07161458333333333, -0.07161458333333333, -0.07161458333333333, -0.07161458333333333, -0.07161458333333333, -0.07161458333333333, -0.07161458333333333, -0.07161458333333333, -0.07161458333333333, -0.07161458333333333, -0.07161458333333333, -0.07161458333333333, -0.07161458333333333, -0.07161458333333333]","[-0.049479166666666664, -0.049479166666666664, -0.049479166666666664, -0.049479166666666664, -0.049479166666666664, -0.049479166666666664, -0.049479166666666664, -0.049479166666666664, -0.049479166666666664, -0.049479166666666664, -0.049479166666666664, -0.049479166666666664, -0.049479166666666664, -0.049479166666666664]","[0, 0, 0, 0, 0, 0, 0, 0, 0, 0, 0, 0, 0, 0]","[0, 0, 0, 0, 0, 0, 0, 0, 0, 0, 0, 0, 0, 0]","[0, 0, 0, 0, 0, 0, 0, 0, 0, 0, 0, 0, 0, 0]","[0.004703899845480919, 0.01569419982843101, 0.040817299857735634, 0.058312200009822845, 0.075583899859339, 0.09148889989592135, 0.10819269996136427, 0.1250239999499172, 0.14159479993395507, 0.1581571998540312, 0.17488259985111654, 0.191559299826622, 0.20822589984163642, 0.22500029997900128]",22.335577700054273,None,22.335577700054273,None,22.335577700054273,None,22.335577700054273,None,22.335577700054273,None,,,,,,,,,,,,,,,,,a,001,2020_Jun_24_1800,pAdaptTest2,2020.1.3,59.99048550638878,
2,2,15,,,,,0,14,14,14,,,,,,,,,,,,,,,,,,,,,"[1, 1, 1, 1, 1, 1, 1, 1, 1, 1, 1, 1, 1, 1, 1]",40,,,,,,,,,"[-0.07161458333333333, -0.07161458333333333, -0.07161458333333333, -0.07161458333333333, -0.07161458333333333, -0.07161458333333333, -0.07161458333333333, -0.07161458333333333, -0.07161458333333333, -0.07161458333333333, -0.07161458333333333, -0.07161458333333333, -0.07161458333333333, -0.07161458333333333, -0.07161458333333333]","[-0.049479166666666664, -0.049479166666666664, -0.049479166666666664, -0.049479166666666664, -0.049479166666666664, -0.049479166666666664, -0.049479166666666664, -0.049479166666666664, -0.049479166666666664, -0.049479166666666664, -0.049479166666666664, -0.049479166666666664, -0.049479166666666664, -0.049479166666666664, -0.049479166666666664]","[0, 0, 0, 0, 0, 0, 0, 0, 0, 0, 0, 0, 0, 0, 0]","[0, 0, 0, 0, 0, 0, 0, 0, 0, 0, 0, 0, 0, 0, 0]","[0, 0, 0, 0, 0, 0, 0, 0, 0, 0, 0, 0, 0, 0, 0]","[0.004596699960529804, 0.014973899815231562, 0.026900599943473935, 0.04292459995485842, 0.0598301999270916, 0.07623309991322458, 0.09285249980166554, 0.10959139978513122, 0.1261958999093622, 0.142910499824211, 0.15951759996823967, 0.17621089983731508, 0.19288249989040196, 0.20957129984162748, 0.2265720998402685]",22.567476500058547,None,22.567476500058547,None,22.567476500058547,None,22.567476500058547,None,22.567476500058547,None,,,,,,,,,,,,,,,,,a,001,2020_Jun_24_1800,pAdaptTest2,2020.1.3,59.99048550638878,
2,2,16,,,,,0,15,15,15,,,,,,,,,,,,,,,,,,,,,"[1, 1, 1, 1, 1, 1, 1, 1, 1, 1, 1, 1, 1, 1]",50,,,,,,,,,"[-0.07161458333333333, -0.07161458333333333, -0.07161458333333333, -0.07161458333333333, -0.07161458333333333, -0.07161458333333333, -0.07161458333333333, -0.07161458333333333, -0.07161458333333333, -0.07161458333333333, -0.07161458333333333, -0.07161458333333333, -0.07161458333333333, -0.07161458333333333]","[-0.049479166666666664, -0.049479166666666664, -0.049479166666666664, -0.049479166666666664, -0.049479166666666664, -0.049479166666666664, -0.049479166666666664, -0.049479166666666664, -0.049479166666666664, -0.049479166666666664, -0.049479166666666664, -0.049479166666666664, -0.049479166666666664, -0.049479166666666664]","[0, 0, 0, 0, 0, 0, 0, 0, 0, 0, 0, 0, 0, 0]","[0, 0, 0, 0, 0, 0, 0, 0, 0, 0, 0, 0, 0, 0]","[0, 0, 0, 0, 0, 0, 0, 0, 0, 0, 0, 0, 0, 0]","[0.004339399980381131, 0.015226299874484539, 0.026106099830940366, 0.041971099795773625, 0.058707999996840954, 0.07570699998177588, 0.0920851998962462, 0.10870340000838041, 0.12528899987228215, 0.14206499978899956, 0.15859779994934797, 0.17531499988399446, 0.19198559992946684, 0.20898859994485974]",22.80162740009837,None,22.80162740009837,None,22.80162740009837,None,22.80162740009837,None,22.80162740009837,None,,,,,,,,,,,,,,,,,a,001,2020_Jun_24_1800,pAdaptTest2,2020.1.3,59.99048550638878,
2,2,17,,,,,0,16,16,16,,,,,,,,,,,,,,,,,,,,,"[1, 1, 1, 1, 1, 1, 1, 1, 1, 1, 1, 1, 1]",40,,,,,,,,,"[-0.07161458333333333, -0.07161458333333333, -0.07161458333333333, -0.07161458333333333, -0.07161458333333333, -0.07161458333333333, -0.07161458333333333, -0.07161458333333333, -0.07161458333333333, -0.07161458333333333, -0.07161458333333333, -0.07161458333333333, -0.07161458333333333]","[-0.049479166666666664, -0.049479166666666664, -0.049479166666666664, -0.049479166666666664, -0.049479166666666664, -0.049479166666666664, -0.049479166666666664, -0.049479166666666664, -0.049479166666666664, -0.049479166666666664, -0.049479166666666664, -0.049479166666666664, -0.049479166666666664]","[0, 0, 0, 0, 0, 0, 0, 0, 0, 0, 0, 0, 0]","[0, 0, 0, 0, 0, 0, 0, 0, 0, 0, 0, 0, 0]","[0, 0, 0, 0, 0, 0, 0, 0, 0, 0, 0, 0, 0]","[0.004364100052043796, 0.015280999941751361, 0.04125329991802573, 0.058553900104016066, 0.07561809988692403, 0.09188809990882874, 0.1087480999995023, 0.12520010001026094, 0.14176480006426573, 0.15854199999012053, 0.1751176998950541, 0.19179870001971722, 0.20860220002941787]",23.018113899976015,None,23.018113899976015,None,23.018113899976015,None,23.018113899976015,None,23.018113899976015,None,,,,,,,,,,,,,,,,,a,001,2020_Jun_24_1800,pAdaptTest2,2020.1.3,59.99048550638878,
2,2,18,,,,,0,17,17,17,,,,,,,,,,,,,,,,,,,,,"[1, 1, 1, 1, 1, 1, 1, 1, 1, 1, 1, 1, 1]",50,,,,,,,,,"[-0.07161458333333333, -0.07161458333333333, -0.07161458333333333, -0.07161458333333333, -0.07161458333333333, -0.07161458333333333, -0.07161458333333333, -0.07161458333333333, -0.07161458333333333, -0.07161458333333333, -0.07161458333333333, -0.07161458333333333, -0.07161458333333333]","[-0.049479166666666664, -0.049479166666666664, -0.049479166666666664, -0.049479166666666664, -0.049479166666666664, -0.049479166666666664, -0.049479166666666664, -0.049479166666666664, -0.049479166666666664, -0.049479166666666664, -0.049479166666666664, -0.049479166666666664, -0.049479166666666664]","[0, 0, 0, 0, 0, 0, 0, 0, 0, 0, 0, 0, 0]","[0, 0, 0, 0, 0, 0, 0, 0, 0, 0, 0, 0, 0]","[0, 0, 0, 0, 0, 0, 0, 0, 0, 0, 0, 0, 0]","[0.004574300022795796, 0.016366099938750267, 0.04238140000961721, 0.05963819986209273, 0.07624610001221299, 0.09346110001206398, 0.10959129990078509, 0.12623669998720288, 0.1429037000052631, 0.15959850000217557, 0.17625380004756153, 0.19292790000326931, 0.2095399999525398]",23.234944500029087,None,23.234944500029087,None,23.234944500029087,None,23.234944500029087,None,23.234944500029087,None,,,,,,,,,,,,,,,,,a,001,2020_Jun_24_1800,pAdaptTest2,2020.1.3,59.99048550638878,
2,2,19,,,,,0,18,18,18,,,,,,,,,,,,,,,,,,,,,"[1, 1, 1, 1, 1, 1, 1, 1, 1, 1, 1, 1, 1]",40,,,,,,,,,"[-0.07161458333333333, -0.07161458333333333, -0.07161458333333333, -0.07161458333333333, -0.07161458333333333, -0.07161458333333333, -0.07161458333333333, -0.07161458333333333, -0.07161458333333333, -0.07161458333333333, -0.07161458333333333, -0.07161458333333333, -0.07161458333333333]","[-0.049479166666666664, -0.049479166666666664, -0.049479166666666664, -0.049479166666666664, -0.049479166666666664, -0.049479166666666664, -0.049479166666666664, -0.049479166666666664, -0.049479166666666664, -0.049479166666666664, -0.049479166666666664, -0.049479166666666664, -0.049479166666666664]","[0, 0, 0, 0, 0, 0, 0, 0, 0, 0, 0, 0, 0]","[0, 0, 0, 0, 0, 0, 0, 0, 0, 0, 0, 0, 0]","[0, 0, 0, 0, 0, 0, 0, 0, 0, 0, 0, 0, 0]","[0.005052999826148152, 0.016130900010466576, 0.0270495000295341, 0.043064599856734276, 0.06024009990505874, 0.07638309989124537, 0.09307259996421635, 0.10969739989377558, 0.12632919987663627, 0.14301469991914928, 0.15958400000818074, 0.17662869999185205, 0.1934322000015527]",23.45148369995877,None,23.45148369995877,None,23.45148369995877,None,23.45148369995877,None,23.45148369995877,None,,,,,,,,,,,,,,,,,a,001,2020_Jun_24_1800,pAdaptTest2,2020.1.3,59.99048550638878,
2,2,20,,,,,0,19,19,19,,,,,,,,,,,,,,,,,,,,,"[1, 1, 1, 1, 1, 1, 1, 1, 1, 1, 1, 1, 1, 1]",50,,,,,,,,,"[-0.07161458333333333, -0.07161458333333333, -0.07161458333333333, -0.07161458333333333, -0.07161458333333333, -0.07161458333333333, -0.07161458333333333, -0.07161458333333333, -0.07161458333333333, -0.07161458333333333, -0.07161458333333333, -0.07161458333333333, -0.07161458333333333, -0.07161458333333333]","[-0.049479166666666664, -0.049479166666666664, -0.049479166666666664, -0.049479166666666664, -0.049479166666666664, -0.049479166666666664, -0.049479166666666664, -0.049479166666666664, -0.049479166666666664, -0.049479166666666664, -0.049479166666666664, -0.049479166666666664, -0.049479166666666664, -0.049479166666666664]","[0, 0, 0, 0, 0, 0, 0, 0, 0, 0, 0, 0, 0, 0]","[0, 0, 0, 0, 0, 0, 0, 0, 0, 0, 0, 0, 0, 0]","[0, 0, 0, 0, 0, 0, 0, 0, 0, 0, 0, 0, 0, 0]","[0.004380800062790513, 0.015270900214090943, 0.026083700126037, 0.04188650008291006, 0.058540300000458956, 0.07552150008268654, 0.09187780017964542, 0.10854360018856823, 0.12521430011838675, 0.14182900008745492, 0.15852270019240677, 0.17513700015842915, 0.19182030018419027, 0.2084945000242442]",23.651556000113487,None,23.651556000113487,None,23.651556000113487,None,23.651556000113487,None,23.651556000113487,None,,,,,,,,,,,,,,,,,a,001,2020_Jun_24_1800,pAdaptTest2,2020.1.3,59.99048550638878,
2,2,21,,,,,0,20,20,20,,,,,,,,,,,,,,,,,,,,,"[1, 1, 1, 1, 1, 1, 1, 1, 1, 1, 1, 1, 1]",40,,,,,,,,,"[-0.07161458333333333, -0.07161458333333333, -0.07161458333333333, -0.07161458333333333, -0.07161458333333333, -0.07161458333333333, -0.07161458333333333, -0.07161458333333333, -0.07161458333333333, -0.07161458333333333, -0.07161458333333333, -0.07161458333333333, -0.07161458333333333]","[-0.049479166666666664, -0.049479166666666664, -0.049479166666666664, -0.049479166666666664, -0.049479166666666664, -0.049479166666666664, -0.049479166666666664, -0.049479166666666664, -0.049479166666666664, -0.049479166666666664, -0.049479166666666664, -0.049479166666666664, -0.049479166666666664]","[0, 0, 0, 0, 0, 0, 0, 0, 0, 0, 0, 0, 0]","[0, 0, 0, 0, 0, 0, 0, 0, 0, 0, 0, 0, 0]","[0, 0, 0, 0, 0, 0, 0, 0, 0, 0, 0, 0, 0]","[0.004503200063481927, 0.016741700004786253, 0.04221659991890192, 0.06037229998037219, 0.07634719996713102, 0.09298399998806417, 0.10944760008715093, 0.1263015998993069, 0.14296599989756942, 0.1595501999836415, 0.17626770003698766, 0.19343329989351332, 0.21002999995835125]",23.86801919993013,None,23.86801919993013,None,23.86801919993013,None,23.86801919993013,None,23.86801919993013,None,,,,,,,,,,,,,,,,,a,001,2020_Jun_24_1800,pAdaptTest2,2020.1.3,59.99048550638878,
2,2,22,,,,,0,21,21,21,,,,,,,,,,,,,,,,,,,,,"[1, 1, 1, 1, 1, 1, 1, 1, 1, 1, 1, 1, 1]",50,,,,,,,,,"[-0.07161458333333333, -0.07161458333333333, -0.07161458333333333, -0.07161458333333333, -0.07161458333333333, -0.07161458333333333, -0.07161458333333333, -0.07161458333333333, -0.07161458333333333, -0.07161458333333333, -0.07161458333333333, -0.07161458333333333, -0.07161458333333333]","[-0.049479166666666664, -0.049479166666666664, -0.049479166666666664, -0.049479166666666664, -0.049479166666666664, -0.049479166666666664, -0.049479166666666664, -0.049479166666666664, -0.049479166666666664, -0.049479166666666664, -0.049479166666666664, -0.049479166666666664, -0.049479166666666664]","[0, 0, 0, 0, 0, 0, 0, 0, 0, 0, 0, 0, 0]","[0, 0, 0, 0, 0, 0, 0, 0, 0, 0, 0, 0, 0]","[0, 0, 0, 0, 0, 0, 0, 0, 0, 0, 0, 0, 0]","[0.00432029995135963, 0.01482769986614585, 0.02599719981662929, 0.04242269997484982, 0.05873659998178482, 0.07536679995246232, 0.09211889980360866, 0.10854619997553527, 0.12548779998905957, 0.14201670000329614, 0.15876000002026558, 0.17533499980345368, 0.19277919991873205]",24.084630199940875,None,24.084630199940875,None,24.084630199940875,None,24.084630199940875,None,24.084630199940875,None,,,,,,,,,,,,,,,,,a,001,2020_Jun_24_1800,pAdaptTest2,2020.1.3,59.99048550638878,
2,2,23,,,,,0,22,22,22,,,,,,,,,,,,,,,,,,,,,"[1, 1, 1, 1, 1, 1, 1, 1, 1, 1, 1]",40,,,,,,,,,"[-0.07161458333333333, -0.07161458333333333, -0.07161458333333333, -0.07161458333333333, -0.07161458333333333, -0.07161458333333333, -0.07161458333333333, -0.07161458333333333, -0.07161458333333333, -0.07161458333333333, -0.07161458333333333]","[-0.049479166666666664, -0.049479166666666664, -0.049479166666666664, -0.049479166666666664, -0.049479166666666664, -0.049479166666666664, -0.049479166666666664, -0.049479166666666664, -0.049479166666666664, -0.049479166666666664, -0.049479166666666664]","[0, 0, 0, 0, 0, 0, 0, 0, 0, 0, 0]","[0, 0, 0, 0, 0, 0, 0, 0, 0, 0, 0]","[0, 0, 0, 0, 0, 0, 0, 0, 0, 0, 0]","[0.0055379001423716545, 0.01713789999485016, 0.04065799992531538, 0.05855159997008741, 0.07473120000213385, 0.09130900003947318, 0.10804260009899735, 0.1246070999186486, 0.14122140011750162, 0.157882499974221, 0.1745911999605596]",24.28683690004982,None,24.28683690004982,None,24.28683690004982,None,24.28683690004982,None,24.28683690004982,None,,,,,,,,,,,,,,,,,a,001,2020_Jun_24_1800,pAdaptTest2,2020.1.3,59.99048550638878,
2,2,24,,,,,0,23,23,23,,,,,,,,,,,,,,,,,,,,,"[1, 1, 1, 1, 1, 1, 1, 1, 1, 1, 1]",50,,,,,,,,,"[-0.07161458333333333, -0.07161458333333333, -0.07161458333333333, -0.07161458333333333, -0.07161458333333333, -0.07161458333333333, -0.07161458333333333, -0.07161458333333333, -0.07161458333333333, -0.07161458333333333, -0.07161458333333333]","[-0.049479166666666664, -0.049479166666666664, -0.049479166666666664, -0.049479166666666664, -0.049479166666666664, -0.049479166666666664, -0.049479166666666664, -0.049479166666666664, -0.049479166666666664, -0.049479166666666664, -0.049479166666666664]","[0, 0, 0, 0, 0, 0, 0, 0, 0, 0, 0]","[0, 0, 0, 0, 0, 0, 0, 0, 0, 0, 0]","[0, 0, 0, 0, 0, 0, 0, 0, 0, 0, 0]","[0.005140699911862612, 0.01664749998599291, 0.041245299857109785, 0.05848929984495044, 0.07591559994034469, 0.0920142000541091, 0.10866629984229803, 0.1253410999197513, 0.1419676998630166, 0.15876340004615486, 0.17527409992180765]",24.46893460000865,None,24.46893460000865,None,24.46893460000865,None,24.46893460000865,None,24.46893460000865,None,,,,,,,,,,,,,,,,,a,001,2020_Jun_24_1800,pAdaptTest2,2020.1.3,59.99048550638878,
2,2,25,,,,,0,24,24,24,,,,,,,,,,,,,,,,,,,,,"[1, 1, 1, 1, 1, 1, 1, 1, 1, 1, 1, 1]",40,,,,,,,,,"[-0.07161458333333333, -0.07161458333333333, -0.07161458333333333, -0.07161458333333333, -0.07161458333333333, -0.07161458333333333, -0.07161458333333333, -0.07161458333333333, -0.07161458333333333, -0.07161458333333333, -0.07161458333333333, -0.07161458333333333]","[-0.049479166666666664, -0.049479166666666664, -0.049479166666666664, -0.049479166666666664, -0.049479166666666664, -0.049479166666666664, -0.049479166666666664, -0.049479166666666664, -0.049479166666666664, -0.049479166666666664, -0.049479166666666664, -0.049479166666666664]","[0, 0, 0, 0, 0, 0, 0, 0, 0, 0, 0, 0]","[0, 0, 0, 0, 0, 0, 0, 0, 0, 0, 0, 0]","[0, 0, 0, 0, 0, 0, 0, 0, 0, 0, 0, 0]","[0.004623200045898557, 0.016153600066900253, 0.04228810011409223, 0.05981689994223416, 0.0768293000292033, 0.09307519998401403, 0.1096193001139909, 0.1263975000474602, 0.143049499951303, 0.15976519999094307, 0.17638600012287498, 0.19298440008424222]",24.65111940004863,None,24.65111940004863,None,24.65111940004863,None,24.65111940004863,None,24.65111940004863,None,,,,,,,,,,,,,,,,,a,001,2020_Jun_24_1800,pAdaptTest2,2020.1.3,59.99048550638878,
2,2,26,,,,,0,25,25,25,,,,,,,,,,,,,,,,,,,,,"[1, 1, 1, 1, 1, 1, 1, 1, 1, 1, 1, 1]",50,,,,,,,,,"[-0.07161458333333333, -0.07161458333333333, -0.07161458333333333, -0.07161458333333333, -0.07161458333333333, -0.07161458333333333, -0.07161458333333333, -0.07161458333333333, -0.07161458333333333, -0.07161458333333333, -0.07161458333333333, -0.07161458333333333]","[-0.049479166666666664, -0.049479166666666664, -0.049479166666666664, -0.049479166666666664, -0.049479166666666664, -0.049479166666666664, -0.049479166666666664, -0.049479166666666664, -0.049479166666666664, -0.049479166666666664, -0.049479166666666664, -0.049479166666666664]","[0, 0, 0, 0, 0, 0, 0, 0, 0, 0, 0, 0]","[0, 0, 0, 0, 0, 0, 0, 0, 0, 0, 0, 0]","[0, 0, 0, 0, 0, 0, 0, 0, 0, 0, 0, 0]","[0.006149200024083257, 0.016352899838238955, 0.027167599881067872, 0.043102100025862455, 0.060103199910372496, 0.07633810001425445, 0.09292199998162687, 0.10973579995334148, 0.12638379982672632, 0.14305449998937547, 0.1597032998688519, 0.17692709993571043]",24.851452599978074,None,24.851452599978074,None,24.851452599978074,None,24.851452599978074,None,24.851452599978074,None,,,,,,,,,,,,,,,,,a,001,2020_Jun_24_1800,pAdaptTest2,2020.1.3,59.99048550638878,
2,2,27,,,,,0,26,26,26,,,,,,,,,,,,,,,,,,,,,"[1, 1, 1, 1, 1, 1, 1, 1, 1, 1]",40,,,,,,,,,"[-0.07161458333333333, -0.07161458333333333, -0.07161458333333333, -0.07161458333333333, -0.07161458333333333, -0.07161458333333333, -0.07161458333333333, -0.07161458333333333, -0.07161458333333333, -0.07161458333333333]","[-0.049479166666666664, -0.049479166666666664, -0.049479166666666664, -0.049479166666666664, -0.049479166666666664, -0.049479166666666664, -0.049479166666666664, -0.049479166666666664, -0.049479166666666664, -0.049479166666666664]","[0, 0, 0, 0, 0, 0, 0, 0, 0, 0]","[0, 0, 0, 0, 0, 0, 0, 0, 0, 0]","[0, 0, 0, 0, 0, 0, 0, 0, 0, 0]","[0.0050947999116033316, 0.01537299994379282, 0.04168100003153086, 0.0587550001218915, 0.07530950009822845, 0.09229600010439754, 0.1087249000556767, 0.1253720000386238, 0.142333900090307, 0.1586957999970764]",25.034793300088495,None,25.034793300088495,None,25.034793300088495,None,25.034793300088495,None,25.034793300088495,None,,,,,,,,,,,,,,,,,a,001,2020_Jun_24_1800,pAdaptTest2,2020.1.3,59.99048550638878,
2,2,28,,,,,0,27,27,27,,,,,,,,,,,,,,,,,,,,,"[1, 1, 1, 1, 1, 1, 1, 1, 1, 1, 1]",50,,,,,,,,,"[-0.07161458333333333, -0.07161458333333333, -0.07161458333333333, -0.07161458333333333, -0.07161458333333333, -0.07161458333333333, -0.07161458333333333, -0.07161458333333333, -0.07161458333333333, -0.07161458333333333, -0.07161458333333333]","[-0.049479166666666664, -0.049479166666666664, -0.049479166666666664, -0.049479166666666664, -0.049479166666666664, -0.049479166666666664, -0.049479166666666664, -0.049479166666666664, -0.049479166666666664, -0.049479166666666664, -0.049479166666666664]","[0, 0, 0, 0, 0, 0, 0, 0, 0, 0, 0]","[0, 0, 0, 0, 0, 0, 0, 0, 0, 0, 0]","[0, 0, 0, 0, 0, 0, 0, 0, 0, 0, 0]","[0.004131700145080686, 0.015613500028848648, 0.0422580000013113, 0.059708200162276626, 0.07736460003070533, 0.09301830013282597, 0.109643500065431, 0.1262623001821339, 0.14308760012499988, 0.15968989999964833, 0.17720709997229278]",25.20011189999059,None,25.20011189999059,None,25.20011189999059,None,25.20011189999059,None,25.20011189999059,None,,,,,,,,,,,,,,,,,a,001,2020_Jun_24_1800,pAdaptTest2,2020.1.3,59.99048550638878,
2,2,29,,,,,0,28,28,28,,,,,,,,,,,,,,,,,,,,,"[1, 1, 1, 1, 1, 1, 1, 1, 1, 1, 1, 1]",40,,,,,,,,,"[-0.07161458333333333, -0.07161458333333333, -0.07161458333333333, -0.07161458333333333, -0.07161458333333333, -0.07161458333333333, -0.07161458333333333, -0.07161458333333333, -0.07161458333333333, -0.07161458333333333, -0.07161458333333333, -0.07161458333333333]","[-0.049479166666666664, -0.049479166666666664, -0.049479166666666664, -0.049479166666666664, -0.049479166666666664, -0.049479166666666664, -0.049479166666666664, -0.049479166666666664, -0.049479166666666664, -0.049479166666666664, -0.049479166666666664, -0.049479166666666664]","[0, 0, 0, 0, 0, 0, 0, 0, 0, 0, 0, 0]","[0, 0, 0, 0, 0, 0, 0, 0, 0, 0, 0, 0]","[0, 0, 0, 0, 0, 0, 0, 0, 0, 0, 0, 0]","[0.004570200107991695, 0.015693900175392628, 0.04080810002051294, 0.058508200105279684, 0.07521939999423921, 0.09264830010943115, 0.10901750018820167, 0.1252435001078993, 0.1418373000342399, 0.1584415000397712, 0.17522530001588166, 0.19239840004593134]",25.38451369991526,None,25.38451369991526,None,25.38451369991526,None,25.38451369991526,None,25.38451369991526,None,,,,,,,,,,,,,,,,,a,001,2020_Jun_24_1800,pAdaptTest2,2020.1.3,59.99048550638878,
2,2,30,,,,,0,29,29,29,,,,,,,,,,,,,,,,,,,,,"[1, 1, 1, 1, 1, 1, 1, 1, 1, 1, 1, 1]",50,,,,,,,,,"[-0.07161458333333333, -0.07161458333333333, -0.07161458333333333, -0.07161458333333333, -0.07161458333333333, -0.07161458333333333, -0.07161458333333333, -0.07161458333333333, -0.07161458333333333, -0.07161458333333333, -0.07161458333333333, -0.07161458333333333]","[-0.049479166666666664, -0.049479166666666664, -0.049479166666666664, -0.049479166666666664, -0.049479166666666664, -0.049479166666666664, -0.049479166666666664, -0.049479166666666664, -0.049479166666666664, -0.049479166666666664, -0.049479166666666664, -0.049479166666666664]","[0, 0, 0, 0, 0, 0, 0, 0, 0, 0, 0, 0]","[0, 0, 0, 0, 0, 0, 0, 0, 0, 0, 0, 0]","[0, 0, 0, 0, 0, 0, 0, 0, 0, 0, 0, 0]","[0.004718099953606725, 0.014949499862268567, 0.02576799993403256, 0.041974700056016445, 0.058272300055250525, 0.07495909999124706, 0.09169639996252954, 0.10829610005021095, 0.12489930004812777, 0.14159999997355044, 0.15824789996258914, 0.1753648000303656]",25.584636599989608,None,25.584636599989608,None,25.584636599989608,None,25.584636599989608,None,25.584636599989608,None,,,,,,,,,,,,,,,,,a,001,2020_Jun_24_1800,pAdaptTest2,2020.1.3,59.99048550638878,
2,2,31,,,,,0,30,30,30,,,,,,,,,,,,,,,,,,,,,"[1, 1, 1, 1, 1, 1, 1, 1, 1]",40,,,,,,,,,"[-0.07161458333333333, -0.07161458333333333, -0.07161458333333333, -0.07161458333333333, -0.07161458333333333, -0.07161458333333333, -0.07161458333333333, -0.07161458333333333, -0.07161458333333333]","[-0.049479166666666664, -0.049479166666666664, -0.049479166666666664, -0.049479166666666664, -0.049479166666666664, -0.049479166666666664, -0.049479166666666664, -0.049479166666666664, -0.049479166666666664]","[0, 0, 0, 0, 0, 0, 0, 0, 0]","[0, 0, 0, 0, 0, 0, 0, 0, 0]","[0, 0, 0, 0, 0, 0, 0, 0, 0]","[0.005408000200986862, 0.016360900131985545, 0.04110760008916259, 0.058621800038963556, 0.0753171001560986, 0.09183330019004643, 0.10877150017768145, 0.12523810006678104, 0.14244760014116764]",25.768360800109804,None,25.768360800109804,None,25.768360800109804,None,25.768360800109804,None,25.768360800109804,None,,,,,,,,,,,,,,,,,a,001,2020_Jun_24_1800,pAdaptTest2,2020.1.3,59.99048550638878,
2,2,32,,,,,0,31,31,31,,,,,,,,,,,,,,,,,,,,,"[1, 1, 1, 1, 1, 1, 1, 1, 1, 1]",50,,,,,,,,,"[-0.07161458333333333, -0.07161458333333333, -0.07161458333333333, -0.07161458333333333, -0.07161458333333333, -0.07161458333333333, -0.07161458333333333, -0.07161458333333333, -0.07161458333333333, -0.07161458333333333]","[-0.049479166666666664, -0.049479166666666664, -0.049479166666666664, -0.049479166666666664, -0.049479166666666664, -0.049479166666666664, -0.049479166666666664, -0.049479166666666664, -0.049479166666666664, -0.049479166666666664]","[0, 0, 0, 0, 0, 0, 0, 0, 0, 0]","[0, 0, 0, 0, 0, 0, 0, 0, 0, 0]","[0, 0, 0, 0, 0, 0, 0, 0, 0, 0]","[0.004504600074142218, 0.01515959994867444, 0.04101280006580055, 0.05939629999920726, 0.07514550001360476, 0.09181919996626675, 0.10845099994912744, 0.12508099991828203, 0.14180850004777312, 0.15897920005954802]",25.917598800035194,None,25.917598800035194,None,25.917598800035194,None,25.917598800035194,None,25.917598800035194,None,,,,,,,,,,,,,,,,,a,001,2020_Jun_24_1800,pAdaptTest2,2020.1.3,59.99048550638878,
2,2,33,,,,,0,32,32,32,,,,,,,,,,,,,,,,,,,,,"[1, 1, 1, 1, 1, 1, 1, 1, 1, 1, 1, 1, 1, 1, 1, 1, 1, 1, 1, 1, 1]",40,,,,,,,,,"[-0.07161458333333333, -0.07161458333333333, -0.07161458333333333, -0.07161458333333333, -0.07161458333333333, -0.07161458333333333, -0.07161458333333333, -0.07161458333333333, -0.07161458333333333, -0.07161458333333333, -0.07161458333333333, -0.07161458333333333, -0.07161458333333333, -0.07161458333333333, -0.07161458333333333, -0.07161458333333333, -0.07161458333333333, -0.07161458333333333, -0.07161458333333333, -0.07161458333333333, -0.07161458333333333]","[-0.049479166666666664, -0.049479166666666664, -0.049479166666666664, -0.049479166666666664, -0.049479166666666664, -0.049479166666666664, -0.049479166666666664, -0.049479166666666664, -0.049479166666666664, -0.049479166666666664, -0.049479166666666664, -0.049479166666666664, -0.049479166666666664, -0.049479166666666664, -0.049479166666666664, -0.049479166666666664, -0.049479166666666664, -0.049479166666666664, -0.049479166666666664, -0.049479166666666664, -0.049479166666666664]","[0, 0, 0, 0, 0, 0, 0, 0, 0, 0, 0, 0, 0, 0, 0, 0, 0, 0, 0, 0, 0]","[0, 0, 0, 0, 0, 0, 0, 0, 0, 0, 0, 0, 0, 0, 0, 0, 0, 0, 0, 0, 0]","[0, 0, 0, 0, 0, 0, 0, 0, 0, 0, 0, 0, 0, 0, 0, 0, 0, 0, 0, 0, 0]","[0.004691899986937642, 0.015146399848163128, 0.041440999833866954, 0.05924039985984564, 0.07537069986574352, 0.09202679991722107, 0.10868169995956123, 0.1253990000113845, 0.14205769984982908, 0.15861359983682632, 0.17534259986132383, 0.19206409994512796, 0.20869879983365536, 0.22530369996093214, 0.24239999987185, 0.25864359992556274, 0.2753173999954015, 0.2918785000219941, 0.3087491998448968, 0.32541079982183874, 0.34196889982558787]",26.084208500105888,None,26.084208500105888,None,26.084208500105888,None,26.084208500105888,None,26.084208500105888,None,,,,,,,,,,,,,,,,,a,001,2020_Jun_24_1800,pAdaptTest2,2020.1.3,59.99048550638878,
2,2,34,,,,,0,33,33,33,,,,,,,,,,,,,,,,,,,,,"[1, 1, 1, 1, 1, 1, 1, 1, 1, 1, 1]",50,,,,,,,,,"[-0.07161458333333333, -0.07161458333333333, -0.07161458333333333, -0.07161458333333333, -0.07161458333333333, -0.07161458333333333, -0.07161458333333333, -0.07161458333333333, -0.07161458333333333, -0.07161458333333333, -0.07161458333333333]","[-0.049479166666666664, -0.049479166666666664, -0.049479166666666664, -0.049479166666666664, -0.049479166666666664, -0.049479166666666664, -0.049479166666666664, -0.049479166666666664, -0.049479166666666664, -0.049479166666666664, -0.049479166666666664]","[0, 0, 0, 0, 0, 0, 0, 0, 0, 0, 0]","[0, 0, 0, 0, 0, 0, 0, 0, 0, 0, 0]","[0, 0, 0, 0, 0, 0, 0, 0, 0, 0, 0]","[0.004014599835500121, 0.015391799854114652, 0.0272064998280257, 0.042904799804091454, 0.06010659993626177, 0.07624249998480082, 0.09285069978795946, 0.10952599998563528, 0.126214399933815, 0.1428693998605013, 0.16027999995276332]",26.433047000085935,None,26.433047000085935,None,26.433047000085935,None,26.433047000085935,None,26.433047000085935,None,,,,,,,,,,,,,,,,,a,001,2020_Jun_24_1800,pAdaptTest2,2020.1.3,59.99048550638878,
2,2,35,,,,,0,34,34,34,,,,,,,,,,,,,,,,,,,,,"[1, 1, 1, 1, 1, 1, 1, 1, 1, 1, 1, 1, 1, 1, 1, 1, 1, 1]",40,,,,,,,,,"[-0.07161458333333333, -0.07161458333333333, -0.07161458333333333, -0.07161458333333333, -0.07161458333333333, -0.07161458333333333, -0.07161458333333333, -0.07161458333333333, -0.07161458333333333, -0.07161458333333333, -0.07161458333333333, -0.07161458333333333, -0.07161458333333333, -0.07161458333333333, -0.07161458333333333, -0.07161458333333333, -0.07161458333333333, -0.07161458333333333]","[-0.049479166666666664, -0.049479166666666664, -0.049479166666666664, -0.049479166666666664, -0.049479166666666664, -0.049479166666666664, -0.049479166666666664, -0.049479166666666664, -0.049479166666666664, -0.049479166666666664, -0.049479166666666664, -0.049479166666666664, -0.049479166666666664, -0.049479166666666664, -0.049479166666666664, -0.049479166666666664, -0.049479166666666664, -0.049479166666666664]","[0, 0, 0, 0, 0, 0, 0, 0, 0, 0, 0, 0, 0, 0, 0, 0, 0, 0]","[0, 0, 0, 0, 0, 0, 0, 0, 0, 0, 0, 0, 0, 0, 0, 0, 0, 0]","[0, 0, 0, 0, 0, 0, 0, 0, 0, 0, 0, 0, 0, 0, 0, 0, 0, 0]","[0.0050542999524623156, 0.01572679984383285, 0.04122729995287955, 0.05850669997744262, 0.07537949993275106, 0.09186169994063675, 0.10854359995573759, 0.1251660999841988, 0.14186510001309216, 0.15915680001489818, 0.1752814999781549, 0.19182750000618398, 0.20851109991781414, 0.22513949987478554, 0.24197350000031292, 0.2582769999280572, 0.2746939000207931, 0.2914388000499457]",26.60095759993419,None,26.60095759993419,None,26.60095759993419,None,26.60095759993419,None,26.60095759993419,None,,,,,,,,,,,,,,,,,a,001,2020_Jun_24_1800,pAdaptTest2,2020.1.3,59.99048550638878,
2,2,36,,,,,0,35,35,35,,,,,,,,,,,,,,,,,,,,,"[1, 1, 1, 1, 1, 1, 1, 1, 1, 1, 1, 1]",50,,,,,,,,,"[-0.07161458333333333, -0.07161458333333333, -0.07161458333333333, -0.07161458333333333, -0.07161458333333333, -0.07161458333333333, -0.07161458333333333, -0.07161458333333333, -0.07161458333333333, -0.07161458333333333, -0.07161458333333333, -0.07161458333333333]","[-0.049479166666666664, -0.049479166666666664, -0.049479166666666664, -0.049479166666666664, -0.049479166666666664, -0.049479166666666664, -0.049479166666666664, -0.049479166666666664, -0.049479166666666664, -0.049479166666666664, -0.049479166666666664, -0.049479166666666664]","[0, 0, 0, 0, 0, 0, 0, 0, 0, 0, 0, 0]","[0, 0, 0, 0, 0, 0, 0, 0, 0, 0, 0, 0]","[0, 0, 0, 0, 0, 0, 0, 0, 0, 0, 0, 0]","[0.0045484998263418674, 0.015395799884572625, 0.02644329983741045, 0.04211889998987317, 0.058875299990177155, 0.07603579992428422, 0.09239289979450405, 0.10882369987666607, 0.1255461999680847, 0.14266979997046292, 0.15949989994987845, 0.1759732998907566]",26.90000359993428,None,26.90000359993428,None,26.90000359993428,None,26.90000359993428,None,26.90000359993428,None,,,,,,,,,,,,,,,,,a,001,2020_Jun_24_1800,pAdaptTest2,2020.1.3,59.99048550638878,
2,2,37,,,,,0,36,36,36,,,,,,,,,,,,,,,,,,,,,"[1, 1, 1, 1, 1, 1, 1, 1, 1, 1, 1]",40,,,,,,,,,"[-0.07161458333333333, -0.07161458333333333, -0.07161458333333333, -0.07161458333333333, -0.07161458333333333, -0.07161458333333333, -0.07161458333333333, -0.07161458333333333, -0.07161458333333333, -0.07161458333333333, -0.07161458333333333]","[-0.049479166666666664, -0.049479166666666664, -0.049479166666666664, -0.049479166666666664, -0.049479166666666664, -0.049479166666666664, -0.049479166666666664, -0.049479166666666664, -0.049479166666666664, -0.049479166666666664, -0.049479166666666664]","[0, 0, 0, 0, 0, 0, 0, 0, 0, 0, 0]","[0, 0, 0, 0, 0, 0, 0, 0, 0, 0, 0]","[0, 0, 0, 0, 0, 0, 0, 0, 0, 0, 0]","[0.005141699919477105, 0.01646489999257028, 0.04158109985291958, 0.0584476999938488, 0.0750957999844104, 0.09179400000721216, 0.10840449994429946, 0.12512119999155402, 0.141799199860543, 0.15839409991167486, 0.17545520002022386]",27.084978899918497,None,27.084978899918497,None,27.084978899918497,None,27.084978899918497,None,27.084978899918497,None,,,,,,,,,,,,,,,,,a,001,2020_Jun_24_1800,pAdaptTest2,2020.1.3,59.99048550638878,
2,2,38,,,,,0,37,37,37,,,,,,,,,,,,,,,,,,,,,"[1, 1, 1, 1, 1, 1, 1, 1, 1, 1, 1, 1]",50,,,,,,,,,"[-0.07161458333333333, -0.07161458333333333, -0.07161458333333333, -0.07161458333333333, -0.07161458333333333, -0.07161458333333333, -0.07161458333333333, -0.07161458333333333, -0.07161458333333333, -0.07161458333333333, -0.07161458333333333, -0.07161458333333333]","[-0.049479166666666664, -0.049479166666666664, -0.049479166666666664, -0.049479166666666664, -0.049479166666666664, -0.049479166666666664, -0.049479166666666664, -0.049479166666666664, -0.049479166666666664, -0.049479166666666664, -0.049479166666666664, -0.049479166666666664]","[0, 0, 0, 0, 0, 0, 0, 0, 0, 0, 0, 0]","[0, 0, 0, 0, 0, 0, 0, 0, 0, 0, 0, 0]","[0, 0, 0, 0, 0, 0, 0, 0, 0, 0, 0, 0]","[0.004354800097644329, 0.015601000050082803, 0.04135730001144111, 0.05882740020751953, 0.07598890014924109, 0.09215480019338429, 0.10880700009875, 0.12553650001063943, 0.14219800010323524, 0.15879670018330216, 0.17546410020440817, 0.19251370010897517]",27.267098000040278,None,27.267098000040278,None,27.267098000040278,None,27.267098000040278,None,27.267098000040278,None,,,,,,,,,,,,,,,,,a,001,2020_Jun_24_1800,pAdaptTest2,2020.1.3,59.99048550638878,
2,2,39,,,,,0,38,38,38,,,,,,,,,,,,,,,,,,,,,"[1, 1, 1, 1, 1, 1, 1, 1, 1, 1, 1, 1]",40,,,,,,,,,"[-0.07161458333333333, -0.07161458333333333, -0.07161458333333333, -0.07161458333333333, -0.07161458333333333, -0.07161458333333333, -0.07161458333333333, -0.07161458333333333, -0.07161458333333333, -0.07161458333333333, -0.07161458333333333, -0.07161458333333333]","[-0.049479166666666664, -0.049479166666666664, -0.049479166666666664, -0.049479166666666664, -0.049479166666666664, -0.049479166666666664, -0.049479166666666664, -0.049479166666666664, -0.049479166666666664, -0.049479166666666664, -0.049479166666666664, -0.049479166666666664]","[0, 0, 0, 0, 0, 0, 0, 0, 0, 0, 0, 0]","[0, 0, 0, 0, 0, 0, 0, 0, 0, 0, 0, 0]","[0, 0, 0, 0, 0, 0, 0, 0, 0, 0, 0, 0]","[0.004745000042021275, 0.016229999950155616, 0.04088629991747439, 0.05834740004502237, 0.07559569994919002, 0.09168979991227388, 0.10832909983582795, 0.12497240002267063, 0.14164020004682243, 0.15840399987064302, 0.17497870000079274, 0.19162619998678565]",27.46812910004519,None,27.46812910004519,None,27.46812910004519,None,27.46812910004519,None,27.46812910004519,None,,,,,,,,,,,,,,,,,a,001,2020_Jun_24_1800,pAdaptTest2,2020.1.3,59.99048550638878,
2,2,40,,,,,0,39,39,39,,,,,,,,,,,,,,,,,,,,,"[1, 1, 1, 1, 1, 1, 1, 1, 1, 1, 1, 1, 1]",50,,,,,,,,,"[-0.07161458333333333, -0.07161458333333333, -0.07161458333333333, -0.07161458333333333, -0.07161458333333333, -0.07161458333333333, -0.07161458333333333, -0.07161458333333333, -0.07161458333333333, -0.07161458333333333, -0.07161458333333333, -0.07161458333333333, -0.07161458333333333]","[-0.049479166666666664, -0.049479166666666664, -0.049479166666666664, -0.049479166666666664, -0.049479166666666664, -0.049479166666666664, -0.049479166666666664, -0.049479166666666664, -0.049479166666666664, -0.049479166666666664, -0.049479166666666664, -0.049479166666666664, -0.049479166666666664]","[0, 0, 0, 0, 0, 0, 0, 0, 0, 0, 0, 0, 0]","[0, 0, 0, 0, 0, 0, 0, 0, 0, 0, 0, 0, 0]","[0, 0, 0, 0, 0, 0, 0, 0, 0, 0, 0, 0, 0]","[0.004039200022816658, 0.01494810008443892, 0.02716700010932982, 0.042999800061807036, 0.059660400031134486, 0.07636980013921857, 0.0934924001339823, 0.1096862000413239, 0.1264007999561727, 0.1430224000941962, 0.15965660009533167, 0.17632680013775826, 0.19296090002171695]",27.66616089991294,None,27.66616089991294,None,27.66616089991294,None,27.66616089991294,None,27.66616089991294,None,,,,,,,,,,,,,,,,,a,001,2020_Jun_24_1800,pAdaptTest2,2020.1.3,59.99048550638878,
2,2,41,,,,,0,40,40,40,,,,,,,,,,,,,,,,,,,,,"[1, 1, 1, 1, 1, 1, 1, 1, 1, 1, 1, 1, 1]",40,,,,,,,,,"[-0.07161458333333333, -0.07161458333333333, -0.07161458333333333, -0.07161458333333333, -0.07161458333333333, -0.07161458333333333, -0.07161458333333333, -0.07161458333333333, -0.07161458333333333, -0.07161458333333333, -0.07161458333333333, -0.07161458333333333, -0.07161458333333333]","[-0.049479166666666664, -0.049479166666666664, -0.049479166666666664, -0.049479166666666664, -0.049479166666666664, -0.049479166666666664, -0.049479166666666664, -0.049479166666666664, -0.049479166666666664, -0.049479166666666664, -0.049479166666666664, -0.049479166666666664, -0.049479166666666664]","[0, 0, 0, 0, 0, 0, 0, 0, 0, 0, 0, 0, 0]","[0, 0, 0, 0, 0, 0, 0, 0, 0, 0, 0, 0, 0]","[0, 0, 0, 0, 0, 0, 0, 0, 0, 0, 0, 0, 0]","[0.004418900003656745, 0.0155392000451684, 0.02661709999665618, 0.042922599939629436, 0.060422000009566545, 0.07629909995011985, 0.0936245999764651, 0.10966660012491047, 0.1263147999998182, 0.14295169990509748, 0.1596109000965953, 0.17635169997811317, 0.193847700022161]",27.86616769991815,None,27.86616769991815,None,27.86616769991815,None,27.86616769991815,None,27.86616769991815,None,,,,,,,,,,,,,,,,,a,001,2020_Jun_24_1800,pAdaptTest2,2020.1.3,59.99048550638878,
2,2,42,,,,,0,41,41,41,,,,,,,,,,,,,,,,,,,,,"[1, 1, 1, 1, 1, 1, 1, 1, 1, 1, 1, 1, 1]",50,,,,,,,,,"[-0.07161458333333333, -0.07161458333333333, -0.07161458333333333, -0.07161458333333333, -0.07161458333333333, -0.07161458333333333, -0.07161458333333333, -0.07161458333333333, -0.07161458333333333, -0.07161458333333333, -0.07161458333333333, -0.07161458333333333, -0.07161458333333333]","[-0.049479166666666664, -0.049479166666666664, -0.049479166666666664, -0.049479166666666664, -0.049479166666666664, -0.049479166666666664, -0.049479166666666664, -0.049479166666666664, -0.049479166666666664, -0.049479166666666664, -0.049479166666666664, -0.049479166666666664, -0.049479166666666664]","[0, 0, 0, 0, 0, 0, 0, 0, 0, 0, 0, 0, 0]","[0, 0, 0, 0, 0, 0, 0, 0, 0, 0, 0, 0, 0]","[0, 0, 0, 0, 0, 0, 0, 0, 0, 0, 0, 0, 0]","[0.004132100148126483, 0.015173600055277348, 0.041537699988111854, 0.05875220010057092, 0.07559609995223582, 0.09286880004219711, 0.1089786000084132, 0.1256187001708895, 0.1422737999819219, 0.15894670016132295, 0.17560620000585914, 0.19226810010150075, 0.20936199999414384]",28.066976699978113,None,28.066976699978113,None,28.066976699978113,None,28.066976699978113,None,28.066976699978113,None,,,,,,,,,,,,,,,,,a,001,2020_Jun_24_1800,pAdaptTest2,2020.1.3,59.99048550638878,
2,2,43,,,,,0,42,42,42,,,,,,,,,,,,,,,,,,,,,"[1, 1, 1, 1, 1, 1, 1, 1, 1, 1, 1]",40,,,,,,,,,"[-0.07161458333333333, -0.07161458333333333, -0.07161458333333333, -0.07161458333333333, -0.07161458333333333, -0.07161458333333333, -0.07161458333333333, -0.07161458333333333, -0.07161458333333333, -0.07161458333333333, -0.07161458333333333]","[-0.049479166666666664, -0.049479166666666664, -0.049479166666666664, -0.049479166666666664, -0.049479166666666664, -0.049479166666666664, -0.049479166666666664, -0.049479166666666664, -0.049479166666666664, -0.049479166666666664, -0.049479166666666664]","[0, 0, 0, 0, 0, 0, 0, 0, 0, 0, 0]","[0, 0, 0, 0, 0, 0, 0, 0, 0, 0, 0]","[0, 0, 0, 0, 0, 0, 0, 0, 0, 0, 0]","[0.0053425999358296394, 0.016937099862843752, 0.041376999812200665, 0.05918689980171621, 0.07545210001990199, 0.09212599997408688, 0.10882139997556806, 0.12548699998296797, 0.14215049985796213, 0.15878659998998046, 0.17581519996747375]",28.284785700030625,None,28.284785700030625,None,28.284785700030625,None,28.284785700030625,None,28.284785700030625,None,,,,,,,,,,,,,,,,,a,001,2020_Jun_24_1800,pAdaptTest2,2020.1.3,59.99048550638878,
2,2,44,,,,,0,43,43,43,,,,,,,,,,,,,,,,,,,,,"[1, 1, 1, 1, 1, 1, 1, 1, 1, 1, 1, 1, 1]",50,,,,,,,,,"[-0.07161458333333333, -0.07161458333333333, -0.07161458333333333, -0.07161458333333333, -0.07161458333333333, -0.07161458333333333, -0.07161458333333333, -0.07161458333333333, -0.07161458333333333, -0.07161458333333333, -0.07161458333333333, -0.07161458333333333, -0.07161458333333333]","[-0.049479166666666664, -0.049479166666666664, -0.049479166666666664, -0.049479166666666664, -0.049479166666666664, -0.049479166666666664, -0.049479166666666664, -0.049479166666666664, -0.049479166666666664, -0.049479166666666664, -0.049479166666666664, -0.049479166666666664, -0.049479166666666664]","[0, 0, 0, 0, 0, 0, 0, 0, 0, 0, 0, 0, 0]","[0, 0, 0, 0, 0, 0, 0, 0, 0, 0, 0, 0, 0]","[0, 0, 0, 0, 0, 0, 0, 0, 0, 0, 0, 0, 0]","[0.004350299946963787, 0.015399200143292546, 0.026413900079205632, 0.04204690014012158, 0.058780800085514784, 0.075928800040856, 0.09204340004362166, 0.10872639995068312, 0.12539940001443028, 0.14202979998663068, 0.15883000008761883, 0.17528900015167892, 0.19242480001412332]",28.4668582000304,None,28.4668582000304,None,28.4668582000304,None,28.4668582000304,None,28.4668582000304,None,,,,,,,,,,,,,,,,,a,001,2020_Jun_24_1800,pAdaptTest2,2020.1.3,59.99048550638878,
2,2,45,,,,,0,44,44,44,,,,,,,,,,,,,,,,,,,,,"[1, 1, 1, 1, 1, 1, 1, 1, 1, 1, 1, 1, 1, 1]",40,,,,,,,,,"[-0.07161458333333333, -0.07161458333333333, -0.07161458333333333, -0.07161458333333333, -0.07161458333333333, -0.07161458333333333, -0.07161458333333333, -0.07161458333333333, -0.07161458333333333, -0.07161458333333333, -0.07161458333333333, -0.07161458333333333, -0.07161458333333333, -0.07161458333333333]","[-0.049479166666666664, -0.049479166666666664, -0.049479166666666664, -0.049479166666666664, -0.049479166666666664, -0.049479166666666664, -0.049479166666666664, -0.049479166666666664, -0.049479166666666664, -0.049479166666666664, -0.049479166666666664, -0.049479166666666664, -0.049479166666666664, -0.049479166666666664]","[0, 0, 0, 0, 0, 0, 0, 0, 0, 0, 0, 0, 0, 0]","[0, 0, 0, 0, 0, 0, 0, 0, 0, 0, 0, 0, 0, 0]","[0, 0, 0, 0, 0, 0, 0, 0, 0, 0, 0, 0, 0, 0]","[0.004379899939522147, 0.015232000034302473, 0.026119499932974577, 0.04199899989180267, 0.058725599898025393, 0.07531929994001985, 0.09249019995331764, 0.10867380001582205, 0.12533740000799298, 0.1420040000230074, 0.15865510003641248, 0.17533260001800954, 0.1919460000935942, 0.209139300044626]",28.666827900102362,None,28.666827900102362,None,28.666827900102362,None,28.666827900102362,None,28.666827900102362,None,,,,,,,,,,,,,,,,,a,001,2020_Jun_24_1800,pAdaptTest2,2020.1.3,59.99048550638878,
2,2,46,,,,,0,45,45,45,,,,,,,,,,,,,,,,,,,,,"[1, 1, 1, 1, 1, 1, 1, 1, 1, 1, 1, 1, 1]",50,,,,,,,,,"[-0.07161458333333333, -0.07161458333333333, -0.07161458333333333, -0.07161458333333333, -0.07161458333333333, -0.07161458333333333, -0.07161458333333333, -0.07161458333333333, -0.07161458333333333, -0.07161458333333333, -0.07161458333333333, -0.07161458333333333, -0.07161458333333333]","[-0.049479166666666664, -0.049479166666666664, -0.049479166666666664, -0.049479166666666664, -0.049479166666666664, -0.049479166666666664, -0.049479166666666664, -0.049479166666666664, -0.049479166666666664, -0.049479166666666664, -0.049479166666666664, -0.049479166666666664, -0.049479166666666664]","[0, 0, 0, 0, 0, 0, 0, 0, 0, 0, 0, 0, 0]","[0, 0, 0, 0, 0, 0, 0, 0, 0, 0, 0, 0, 0]","[0, 0, 0, 0, 0, 0, 0, 0, 0, 0, 0, 0, 0]","[0.004337599966675043, 0.01493309997022152, 0.04118930012919009, 0.058614500099793077, 0.07526400010101497, 0.09195729997009039, 0.10861310013569891, 0.12531640008091927, 0.14193519996479154, 0.15859080012887716, 0.1751898000948131, 0.1919050000142306, 0.20858220010995865]",28.883542299969122,None,28.883542299969122,None,28.883542299969122,None,28.883542299969122,None,28.883542299969122,None,,,,,,,,,,,,,,,,,a,001,2020_Jun_24_1800,pAdaptTest2,2020.1.3,59.99048550638878,
2,2,47,,,,,0,46,46,46,,,,,,,,,,,,,,,,,,,,,"[1, 1, 1, 1, 1, 1, 1, 1, 1, 1, 1, 1, 1]",40,,,,,,,,,"[-0.07161458333333333, -0.07161458333333333, -0.07161458333333333, -0.07161458333333333, -0.07161458333333333, -0.07161458333333333, -0.07161458333333333, -0.07161458333333333, -0.07161458333333333, -0.07161458333333333, -0.07161458333333333, -0.07161458333333333, -0.07161458333333333]","[-0.049479166666666664, -0.049479166666666664, -0.049479166666666664, -0.049479166666666664, -0.049479166666666664, -0.049479166666666664, -0.049479166666666664, -0.049479166666666664, -0.049479166666666664, -0.049479166666666664, -0.049479166666666664, -0.049479166666666664, -0.049479166666666664]","[0, 0, 0, 0, 0, 0, 0, 0, 0, 0, 0, 0, 0]","[0, 0, 0, 0, 0, 0, 0, 0, 0, 0, 0, 0, 0]","[0, 0, 0, 0, 0, 0, 0, 0, 0, 0, 0, 0, 0]","[0.005628500133752823, 0.017052600160241127, 0.03949240013025701, 0.05699539999477565, 0.07372350012883544, 0.09091389994136989, 0.10700870002619922, 0.12369509995914996, 0.14033940015360713, 0.15697090001776814, 0.17364439996890724, 0.19029040005989373, 0.20752559998072684]",29.10313590010628,None,29.10313590010628,None,29.10313590010628,None,29.10313590010628,None,29.10313590010628,None,,,,,,,,,,,,,,,,,a,001,2020_Jun_24_1800,pAdaptTest2,2020.1.3,59.99048550638878,
2,2,48,,,,,0,47,47,47,,,,,,,,,,,,,,,,,,,,,"[1, 1, 1, 1, 1, 1, 1, 1, 1, 1, 1, 1]",50,,,,,,,,,"[-0.07161458333333333, -0.07161458333333333, -0.07161458333333333, -0.07161458333333333, -0.07161458333333333, -0.07161458333333333, -0.07161458333333333, -0.07161458333333333, -0.07161458333333333, -0.07161458333333333, -0.07161458333333333, -0.07161458333333333]","[-0.049479166666666664, -0.049479166666666664, -0.049479166666666664, -0.049479166666666664, -0.049479166666666664, -0.049479166666666664, -0.049479166666666664, -0.049479166666666664, -0.049479166666666664, -0.049479166666666664, -0.049479166666666664, -0.049479166666666664]","[0, 0, 0, 0, 0, 0, 0, 0, 0, 0, 0, 0]","[0, 0, 0, 0, 0, 0, 0, 0, 0, 0, 0, 0]","[0, 0, 0, 0, 0, 0, 0, 0, 0, 0, 0, 0]","[0.004152500070631504, 0.015006100060418248, 0.04154519992880523, 0.058990899939090014, 0.0755982999689877, 0.09229020006023347, 0.10896519990637898, 0.12559309997595847, 0.14226290001533926, 0.15892559988424182, 0.17559199989773333, 0.19265570002608]",29.316439100075513,None,29.316439100075513,None,29.316439100075513,None,29.316439100075513,None,29.316439100075513,None,,,,,,,,,,,,,,,,,a,001,2020_Jun_24_1800,pAdaptTest2,2020.1.3,59.99048550638878,
